"CS","CorrRes","ITI","Res01rewCum","Res02rewCum","ResTotal","TASK","Wrong","acc","accuracy","average_response_time","avg_rt","background","canvas_backend","clock_backend","color_backend","compensation","coordinates","correct","correctAnswer","correct_instructions_transfer","count_ITI_questions","count_ITI_questions_2","count_ITI_questions_3","count_define_task_2_1","count_define_task_2_1_1","count_define_task_4_2","count_define_task_5","count_define_task_6","count_empty","count_end_of_experiment","count_evaluate_answer_1_2","count_evaluate_answer_2","count_experiment","count_final_questions","count_inline_transfer","count_inline_variabili","count_inline_variabili_1","count_inst_questions_1","count_instructions_transfer","count_logger","count_logger_2","count_logger_3","count_new_form_multiple_choice","count_new_logger_2","count_new_sequence_1_1_2","count_new_sequence_1_2","count_new_sequence_4","count_new_sequence_5","count_open_triggerEEG","count_pav_questions_2","count_question_1_1_2","count_question_1_2","count_random_ITI","count_slot_buttons","count_slot_buttons_left","count_slot_buttons_right","count_slot_cue","count_slot_cue_buttons","count_slot_cue_left","count_slot_cue_right","count_slot_pav","count_strategy","count_transfer__sequence_1","count_transfer_loop__1","count_transfer_loop_complete_1","count_transfer_sequence_complete_1","count_trigger_biopac","cursor_roi","cursor_x","cursor_y","datetime","description","disable_garbage_collection","empty_column","experiment_file","experiment_path","font_bold","font_family","font_italic","font_size","font_underline","foreground","form_clicks","fullscreen","height","keyboard_backend","lastRes_time","live_row","live_row_transfer_loop__1","live_row_transfer_loop_complete_1","logfile","mouse_backend","opensesame_codename","opensesame_version","question","repeat_cycle","resO1","resO1reward","resO2","resO2reward","response","response_end_of_experiment","response_instructions_transfer","response_time","response_time_end_of_experiment","response_time_instructions_transfer","round_decimals","sampler_backend","sound_buf_size","sound_channels","sound_freq","sound_sample_size","start","subject_nr","subject_parity","time_ITI_questions","time_ITI_questions_2","time_ITI_questions_3","time_define_task_2_1","time_define_task_2_1_1","time_define_task_4_2","time_define_task_5","time_define_task_6","time_empty","time_end_of_experiment","time_evaluate_answer_1_2","time_evaluate_answer_2","time_experiment","time_final_questions","time_inline_transfer","time_inline_variabili","time_inline_variabili_1","time_inst_questions_1","time_instructions_transfer","time_logger","time_logger_2","time_logger_3","time_new_form_multiple_choice","time_new_logger_2","time_new_sequence_1_1_2","time_new_sequence_1_2","time_new_sequence_4","time_new_sequence_5","time_open_triggerEEG","time_pav_questions_2","time_question_1_1_2","time_question_1_2","time_random_ITI","time_slot_buttons","time_slot_buttons_left","time_slot_buttons_right","time_slot_cue","time_slot_cue_buttons","time_slot_cue_left","time_slot_cue_right","time_slot_pav","time_strategy","time_transfer__sequence_1","time_transfer_loop__1","time_transfer_loop_complete_1","time_transfer_sequence_complete_1","time_trigger_biopac","title","total_correct","total_response_time","total_responses","trigger","uniform_coordinates","width"
"CS-","0","862","0","0","0","Transfer","0","undefined","undefined","undefined","undefined","white","xpyriment","legacy","legacy","0","uniform","undefined","NA","undefined","NA","NA","NA","NA","NA","NA","2","0","0","0","NA","NA","0","0","0","0","0","NA","0","0","NA","NA","NA","NA","NA","NA","NA","NA","0","NA","NA","NA","0","0","0","0","0","0","0","0","0","NA","0","2","0","0","NA","undefined","469","432","05/05/21 17:03:11","The main experiment item","yes","","4. Transfer.osexp","C:\Users\cncadmin\Desktop\Sara G\New_task","no","mono","no","18","no","black","no","yes","768","legacy","NA","0","0","0","C:/Users/cncadmin/Desktop/Sara G/DatiEEG/02mi4.csv","xpyriment","Kafkaesque Koffka","3.2.8","NA","0","NA","NA","NA","NA","1","NA","1","16405","NA","16405","2","legacy","1024","2","48000","-16","experiment","2","even","NA","NA","NA","NA","NA","NA","20741","1957","18393","NA","NA","NA","1957","NA","NA","1958","NA","NA","1987","20741","NA","NA","NA","NA","NA","NA","NA","NA","1957","NA","NA","NA","20739","NA","NA","NA","NA","NA","NA","NA","20741","NA","20739","18399","18394","18399","NA","pit experiment","0","0","0","44","yes","1024"
PIT R1 947.0
PIT R1 665
PIT R1 569
PIT R1 576
"CS3","0","581","0","0","0","Transfer","0","undefined","undefined","undefined","undefined","white","xpyriment","legacy","legacy","0","uniform","undefined","NA","undefined","NA","NA","NA","NA","NA","NA","3","0","0","0","NA","NA","0","0","1","0","0","NA","0","1","NA","NA","NA","NA","NA","NA","NA","NA","0","NA","NA","NA","1","1","1","1","1","1","1","1","1","NA","1","2","0","0","NA","undefined","469","432","05/05/21 17:03:11","The main experiment item","yes","","4. Transfer.osexp","C:\Users\cncadmin\Desktop\Sara G\New_task","no","mono","no","18","no","black","no","yes","768","legacy","27090","1","1","0","C:/Users/cncadmin/Desktop/Sara G/DatiEEG/02mi4.csv","xpyriment","Kafkaesque Koffka","3.2.8","NA","0","4","0","0","0","1","NA","1","16405","NA","16405","2","legacy","1024","2","48000","-16","experiment","2","even","NA","NA","NA","NA","NA","NA","30527","1957","18393","NA","NA","NA","1957","NA","20824","1958","NA","NA","1987","30527","NA","NA","NA","NA","NA","NA","NA","NA","1957","NA","NA","NA","29944","NA","NA","NA","NA","NA","NA","NA","29946","NA","29944","18399","18394","18399","NA","pit experiment","0","0","0","33","yes","1024"
PIT R2 965.0
PIT R2 662
PIT R2 566
PIT R2 577
"CS-","0","701","0","0","0","Transfer","0","undefined","undefined","undefined","undefined","white","xpyriment","legacy","legacy","0","uniform","undefined","NA","undefined","NA","NA","NA","NA","NA","NA","4","0","0","0","NA","NA","0","0","2","0","0","NA","0","2","NA","NA","NA","NA","NA","NA","NA","NA","0","NA","NA","NA","2","2","2","2","2","2","2","2","2","NA","2","2","0","0","NA","undefined","469","432","05/05/21 17:03:11","The main experiment item","yes","","4. Transfer.osexp","C:\Users\cncadmin\Desktop\Sara G\New_task","no","mono","no","18","no","black","no","yes","768","legacy","36861","2","2","0","C:/Users/cncadmin/Desktop/Sara G/DatiEEG/02mi4.csv","xpyriment","Kafkaesque Koffka","3.2.8","NA","0","0","0","4","0","1","NA","1","16405","NA","16405","2","legacy","1024","2","48000","-16","experiment","2","even","NA","NA","NA","NA","NA","NA","40558","1957","18393","NA","NA","NA","1957","NA","30574","1958","NA","NA","1987","40558","NA","NA","NA","NA","NA","NA","NA","NA","1957","NA","NA","NA","39855","NA","NA","NA","NA","NA","NA","NA","39857","NA","39855","18399","18394","18399","NA","pit experiment","0","0","0","44","yes","1024"
PIT R1 654.0
PIT R1 609
PIT R1 587
PIT R1 609
"CS-","0","516","0","0","0","Transfer","0","undefined","undefined","undefined","undefined","white","xpyriment","legacy","legacy","0","uniform","undefined","NA","undefined","NA","NA","NA","NA","NA","NA","5","0","0","0","NA","NA","0","0","3","0","0","NA","0","3","NA","NA","NA","NA","NA","NA","NA","NA","0","NA","NA","NA","3","3","3","3","3","3","3","3","3","NA","3","2","0","0","NA","undefined","469","432","05/05/21 17:03:11","The main experiment item","yes","","4. Transfer.osexp","C:\Users\cncadmin\Desktop\Sara G\New_task","no","mono","no","18","no","black","no","yes","768","legacy","46581","3","3","0","C:/Users/cncadmin/Desktop/Sara G/DatiEEG/02mi4.csv","xpyriment","Kafkaesque Koffka","3.2.8","NA","0","4","0","0","0","1","NA","1","16405","NA","16405","2","legacy","1024","2","48000","-16","experiment","2","even","NA","NA","NA","NA","NA","NA","50018","1957","18393","NA","NA","NA","1957","NA","40595","1958","NA","NA","1987","50018","NA","NA","NA","NA","NA","NA","NA","NA","1957","NA","NA","NA","49500","NA","NA","NA","NA","NA","NA","NA","49502","NA","49500","18399","18394","18399","NA","pit experiment","0","0","0","44","yes","1024"
PIT R1 311.0
PIT R1 617
PIT R1 594
PIT R1 578
PIT R1 599
"CS1","0","897","0","0","0","Transfer","0","undefined","undefined","undefined","undefined","white","xpyriment","legacy","legacy","0","uniform","undefined","NA","undefined","NA","NA","NA","NA","NA","NA","6","0","0","0","NA","NA","0","0","4","0","0","NA","0","4","NA","NA","NA","NA","NA","NA","NA","NA","0","NA","NA","NA","4","4","4","4","4","4","4","4","4","NA","4","2","0","0","NA","undefined","469","432","05/05/21 17:03:11","The main experiment item","yes","","4. Transfer.osexp","C:\Users\cncadmin\Desktop\Sara G\New_task","no","mono","no","18","no","black","no","yes","768","legacy","56279","4","4","0","C:/Users/cncadmin/Desktop/Sara G/DatiEEG/02mi4.csv","xpyriment","Kafkaesque Koffka","3.2.8","NA","0","5","0","0","0","1","NA","1","16405","NA","16405","2","legacy","1024","2","48000","-16","experiment","2","even","NA","NA","NA","NA","NA","NA","60138","1957","18393","NA","NA","NA","1957","NA","50054","1958","NA","NA","1987","60138","NA","NA","NA","NA","NA","NA","NA","NA","1957","NA","NA","NA","59239","NA","NA","NA","NA","NA","NA","NA","59241","NA","59239","18399","18394","18399","NA","pit experiment","0","0","0","11","yes","1024"
PIT R1 319.0
PIT R1 630
PIT R1 604
PIT R1 753
PIT R1 592
"CS1","0","590","0","0","0","Transfer","0","undefined","undefined","undefined","undefined","white","xpyriment","legacy","legacy","0","uniform","undefined","NA","undefined","NA","NA","NA","NA","NA","NA","7","0","0","0","NA","NA","0","0","5","0","0","NA","0","5","NA","NA","NA","NA","NA","NA","NA","NA","0","NA","NA","NA","5","5","5","5","5","5","5","5","5","NA","5","2","0","0","NA","undefined","469","432","05/05/21 17:03:11","The main experiment item","yes","","4. Transfer.osexp","C:\Users\cncadmin\Desktop\Sara G\New_task","no","mono","no","18","no","black","no","yes","768","legacy","66607","5","5","0","C:/Users/cncadmin/Desktop/Sara G/DatiEEG/02mi4.csv","xpyriment","Kafkaesque Koffka","3.2.8","NA","0","5","0","0","0","1","NA","1","16405","NA","16405","2","legacy","1024","2","48000","-16","experiment","2","even","NA","NA","NA","NA","NA","NA","70134","1957","18393","NA","NA","NA","1957","NA","60186","1958","NA","NA","1987","70134","NA","NA","NA","NA","NA","NA","NA","NA","1957","NA","NA","NA","69542","NA","NA","NA","NA","NA","NA","NA","69544","NA","69542","18399","18394","18399","NA","pit experiment","0","0","0","11","yes","1024"
PIT R1 310.0
PIT R1 625
PIT R1 726
PIT R1 582
PIT R1 658
"CS3","0","965","0","0","0","Transfer","0","undefined","undefined","undefined","undefined","white","xpyriment","legacy","legacy","0","uniform","undefined","NA","undefined","NA","NA","NA","NA","NA","NA","8","0","0","0","NA","NA","0","0","6","0","0","NA","0","6","NA","NA","NA","NA","NA","NA","NA","NA","0","NA","NA","NA","6","6","6","6","6","6","6","6","6","NA","6","2","0","0","NA","undefined","469","432","05/05/21 17:03:11","The main experiment item","yes","","4. Transfer.osexp","C:\Users\cncadmin\Desktop\Sara G\New_task","no","mono","no","18","no","black","no","yes","768","legacy","76624","6","6","0","C:/Users/cncadmin/Desktop/Sara G/DatiEEG/02mi4.csv","xpyriment","Kafkaesque Koffka","3.2.8","NA","0","5","0","0","0","1","NA","1","16405","NA","16405","2","legacy","1024","2","48000","-16","experiment","2","even","NA","NA","NA","NA","NA","NA","80563","1957","18393","NA","NA","NA","1957","NA","70182","1958","NA","NA","1987","80563","NA","NA","NA","NA","NA","NA","NA","NA","1957","NA","NA","NA","79596","NA","NA","NA","NA","NA","NA","NA","79598","NA","79596","18399","18394","18399","NA","pit experiment","0","0","0","33","yes","1024"
PIT R2 302.0
PIT R2 630
PIT R2 618
PIT R2 577
PIT R2 596
"CS-","0","674","0","0","0","Transfer","0","undefined","undefined","undefined","undefined","white","xpyriment","legacy","legacy","0","uniform","undefined","NA","undefined","NA","NA","NA","NA","NA","NA","9","0","0","0","NA","NA","0","0","7","0","0","NA","0","7","NA","NA","NA","NA","NA","NA","NA","NA","0","NA","NA","NA","7","7","7","7","7","7","7","7","7","NA","7","2","0","0","NA","undefined","469","432","05/05/21 17:03:11","The main experiment item","yes","","4. Transfer.osexp","C:\Users\cncadmin\Desktop\Sara G\New_task","no","mono","no","18","no","black","no","yes","768","legacy","86843","7","7","0","C:/Users/cncadmin/Desktop/Sara G/DatiEEG/02mi4.csv","xpyriment","Kafkaesque Koffka","3.2.8","NA","0","0","0","5","0","1","NA","1","16405","NA","16405","2","legacy","1024","2","48000","-16","experiment","2","even","NA","NA","NA","NA","NA","NA","90457","1957","18393","NA","NA","NA","1957","NA","80604","1958","NA","NA","1987","90457","NA","NA","NA","NA","NA","NA","NA","NA","1957","NA","NA","NA","89781","NA","NA","NA","NA","NA","NA","NA","89783","NA","89781","18399","18394","18399","NA","pit experiment","0","0","0","44","yes","1024"
PIT R1 308.0
PIT R1 597
PIT R1 627
PIT R1 594
PIT R1 614
"CS2","0","640","0","0","0","Transfer","0","undefined","undefined","undefined","undefined","white","xpyriment","legacy","legacy","0","uniform","undefined","NA","undefined","NA","NA","NA","NA","NA","NA","10","0","0","0","NA","NA","0","0","8","0","0","NA","0","8","NA","NA","NA","NA","NA","NA","NA","NA","0","NA","NA","NA","8","8","8","8","8","8","8","8","8","NA","8","2","0","0","NA","undefined","469","432","05/05/21 17:03:11","The main experiment item","yes","","4. Transfer.osexp","C:\Users\cncadmin\Desktop\Sara G\New_task","no","mono","no","18","no","black","no","yes","768","legacy","96751","8","8","0","C:/Users/cncadmin/Desktop/Sara G/DatiEEG/02mi4.csv","xpyriment","Kafkaesque Koffka","3.2.8","NA","0","5","0","0","0","1","NA","1","16405","NA","16405","2","legacy","1024","2","48000","-16","experiment","2","even","NA","NA","NA","NA","NA","NA","100383","1957","18393","NA","NA","NA","1957","NA","90494","1958","NA","NA","1987","100383","NA","NA","NA","NA","NA","NA","NA","NA","1957","NA","NA","NA","99741","NA","NA","NA","NA","NA","NA","NA","99743","NA","99741","18399","18394","18399","NA","pit experiment","0","0","0","22","yes","1024"
PIT R2 804.0
PIT R2 664
PIT R2 612
PIT R2 638
"CS1","0","746","0","0","0","Transfer","0","undefined","undefined","undefined","undefined","white","xpyriment","legacy","legacy","0","uniform","undefined","NA","undefined","NA","NA","NA","NA","NA","NA","11","0","0","0","NA","NA","0","0","9","0","0","NA","0","9","NA","NA","NA","NA","NA","NA","NA","NA","0","NA","NA","NA","9","9","9","9","9","9","9","9","9","NA","9","2","0","0","NA","undefined","469","432","05/05/21 17:03:11","The main experiment item","yes","","4. Transfer.osexp","C:\Users\cncadmin\Desktop\Sara G\New_task","no","mono","no","18","no","black","no","yes","768","legacy","106650","9","9","0","C:/Users/cncadmin/Desktop/Sara G/DatiEEG/02mi4.csv","xpyriment","Kafkaesque Koffka","3.2.8","NA","0","0","0","4","0","1","NA","1","16405","NA","16405","2","legacy","1024","2","48000","-16","experiment","2","even","NA","NA","NA","NA","NA","NA","110350","1957","18393","NA","NA","NA","1957","NA","100416","1958","NA","NA","1987","110350","NA","NA","NA","NA","NA","NA","NA","NA","1957","NA","NA","NA","109602","NA","NA","NA","NA","NA","NA","NA","109604","NA","109602","18399","18394","18399","NA","pit experiment","0","0","0","11","yes","1024"
PIT R1 307.0
PIT R1 609
PIT R1 603
PIT R1 600
PIT R1 584
"CS-","0","755","0","0","0","Transfer","0","undefined","undefined","undefined","undefined","white","xpyriment","legacy","legacy","0","uniform","undefined","NA","undefined","NA","NA","NA","NA","NA","NA","12","0","0","0","NA","NA","0","0","10","0","0","NA","0","10","NA","NA","NA","NA","NA","NA","NA","NA","0","NA","NA","NA","10","10","10","10","10","10","10","10","10","NA","10","2","0","0","NA","undefined","469","432","05/05/21 17:03:11","The main experiment item","yes","","4. Transfer.osexp","C:\Users\cncadmin\Desktop\Sara G\New_task","no","mono","no","18","no","black","no","yes","768","legacy","116627","10","10","0","C:/Users/cncadmin/Desktop/Sara G/DatiEEG/02mi4.csv","xpyriment","Kafkaesque Koffka","3.2.8","NA","0","5","0","0","0","1","NA","1","16405","NA","16405","2","legacy","1024","2","48000","-16","experiment","2","even","NA","NA","NA","NA","NA","NA","120323","1957","18393","NA","NA","NA","1957","NA","110390","1958","NA","NA","1987","120323","NA","NA","NA","NA","NA","NA","NA","NA","1957","NA","NA","NA","119566","NA","NA","NA","NA","NA","NA","NA","119568","NA","119566","18399","18394","18399","NA","pit experiment","0","0","0","44","yes","1024"
PIT R1 301.0
PIT R1 628
PIT R1 697
PIT R1 631
PIT R1 624
"CS3","0","983","0","0","0","Transfer","0","undefined","undefined","undefined","undefined","white","xpyriment","legacy","legacy","0","uniform","undefined","NA","undefined","NA","NA","NA","NA","NA","NA","13","0","0","0","NA","NA","0","0","11","0","0","NA","0","11","NA","NA","NA","NA","NA","NA","NA","NA","0","NA","NA","NA","11","11","11","11","11","11","11","11","11","NA","11","2","0","0","NA","undefined","469","432","05/05/21 17:03:11","The main experiment item","yes","","4. Transfer.osexp","C:\Users\cncadmin\Desktop\Sara G\New_task","no","mono","no","18","no","black","no","yes","768","legacy","126759","11","11","0","C:/Users/cncadmin/Desktop/Sara G/DatiEEG/02mi4.csv","xpyriment","Kafkaesque Koffka","3.2.8","NA","0","5","0","0","0","1","NA","1","16405","NA","16405","2","legacy","1024","2","48000","-16","experiment","2","even","NA","NA","NA","NA","NA","NA","130693","1957","18393","NA","NA","NA","1957","NA","120362","1958","NA","NA","1987","130693","NA","NA","NA","NA","NA","NA","NA","NA","1957","NA","NA","NA","129708","NA","NA","NA","NA","NA","NA","NA","129710","NA","129708","18399","18394","18399","NA","pit experiment","0","0","0","33","yes","1024"
PIT R2 299.0
PIT R2 616
PIT R2 571
PIT R2 608
PIT R2 598
"CS-","0","626","0","0","0","Transfer","0","undefined","undefined","undefined","undefined","white","xpyriment","legacy","legacy","0","uniform","undefined","NA","undefined","NA","NA","NA","NA","NA","NA","14","0","0","0","NA","NA","0","0","12","0","0","NA","0","12","NA","NA","NA","NA","NA","NA","NA","NA","0","NA","NA","NA","12","12","12","12","12","12","12","12","12","NA","12","2","0","0","NA","undefined","469","432","05/05/21 17:03:11","The main experiment item","yes","","4. Transfer.osexp","C:\Users\cncadmin\Desktop\Sara G\New_task","no","mono","no","18","no","black","no","yes","768","legacy","136946","12","12","0","C:/Users/cncadmin/Desktop/Sara G/DatiEEG/02mi4.csv","xpyriment","Kafkaesque Koffka","3.2.8","NA","0","0","0","5","0","1","NA","1","16405","NA","16405","2","legacy","1024","2","48000","-16","experiment","2","even","NA","NA","NA","NA","NA","NA","140558","1957","18393","NA","NA","NA","1957","NA","130727","1958","NA","NA","1987","140558","NA","NA","NA","NA","NA","NA","NA","NA","1957","NA","NA","NA","139930","NA","NA","NA","NA","NA","NA","NA","139932","NA","139930","18399","18394","18399","NA","pit experiment","0","0","0","44","yes","1024"
PIT R1 775.0
PIT R1 696
PIT R1 632
PIT R1 602
"CS2","0","730","0","0","0","Transfer","0","undefined","undefined","undefined","undefined","white","xpyriment","legacy","legacy","0","uniform","undefined","NA","undefined","NA","NA","NA","NA","NA","NA","15","0","0","0","NA","NA","0","0","13","0","0","NA","0","13","NA","NA","NA","NA","NA","NA","NA","NA","0","NA","NA","NA","13","13","13","13","13","13","13","13","13","NA","13","2","0","0","NA","undefined","469","432","05/05/21 17:03:11","The main experiment item","yes","","4. Transfer.osexp","C:\Users\cncadmin\Desktop\Sara G\New_task","no","mono","no","18","no","black","no","yes","768","legacy","146817","13","13","0","C:/Users/cncadmin/Desktop/Sara G/DatiEEG/02mi4.csv","xpyriment","Kafkaesque Koffka","3.2.8","NA","0","4","0","0","0","1","NA","1","16405","NA","16405","2","legacy","1024","2","48000","-16","experiment","2","even","NA","NA","NA","NA","NA","NA","150456","1957","18393","NA","NA","NA","1957","NA","140584","1958","NA","NA","1987","150456","NA","NA","NA","NA","NA","NA","NA","NA","1957","NA","NA","NA","149724","NA","NA","NA","NA","NA","NA","NA","149726","NA","149724","18399","18394","18399","NA","pit experiment","0","0","0","22","yes","1024"
PIT R2 306.0
PIT R2 630
PIT R2 565
PIT R2 610
PIT R2 617
"CS1","0","520","0","0","0","Transfer","0","undefined","undefined","undefined","undefined","white","xpyriment","legacy","legacy","0","uniform","undefined","NA","undefined","NA","NA","NA","NA","NA","NA","16","0","0","0","NA","NA","0","0","14","0","0","NA","0","14","NA","NA","NA","NA","NA","NA","NA","NA","0","NA","NA","NA","14","14","14","14","14","14","14","14","14","NA","14","2","0","0","NA","undefined","469","432","05/05/21 17:03:11","The main experiment item","yes","","4. Transfer.osexp","C:\Users\cncadmin\Desktop\Sara G\New_task","no","mono","no","18","no","black","no","yes","768","legacy","156760","14","14","0","C:/Users/cncadmin/Desktop/Sara G/DatiEEG/02mi4.csv","xpyriment","Kafkaesque Koffka","3.2.8","NA","0","0","0","5","0","1","NA","1","16405","NA","16405","2","legacy","1024","2","48000","-16","experiment","2","even","NA","NA","NA","NA","NA","NA","160243","1957","18393","NA","NA","NA","1957","NA","150499","1958","NA","NA","1987","160243","NA","NA","NA","NA","NA","NA","NA","NA","1957","NA","NA","NA","159721","NA","NA","NA","NA","NA","NA","NA","159723","NA","159721","18399","18394","18399","NA","pit experiment","0","0","0","11","yes","1024"
PIT R1 858.0
PIT R1 618
PIT R1 806
PIT R1 582
"CS3","0","733","0","0","0","Transfer","0","undefined","undefined","undefined","undefined","white","xpyriment","legacy","legacy","0","uniform","undefined","NA","undefined","NA","NA","NA","NA","NA","NA","17","0","0","0","NA","NA","0","0","15","0","0","NA","0","15","NA","NA","NA","NA","NA","NA","NA","NA","0","NA","NA","NA","15","15","15","15","15","15","15","15","15","NA","15","2","0","0","NA","undefined","469","432","05/05/21 17:03:11","The main experiment item","yes","","4. Transfer.osexp","C:\Users\cncadmin\Desktop\Sara G\New_task","no","mono","no","18","no","black","no","yes","768","legacy","166677","15","15","0","C:/Users/cncadmin/Desktop/Sara G/DatiEEG/02mi4.csv","xpyriment","Kafkaesque Koffka","3.2.8","NA","0","4","0","0","0","1","NA","1","16405","NA","16405","2","legacy","1024","2","48000","-16","experiment","2","even","NA","NA","NA","NA","NA","NA","170304","1957","18393","NA","NA","NA","1957","NA","160291","1958","NA","NA","1987","170304","NA","NA","NA","NA","NA","NA","NA","NA","1957","NA","NA","NA","169569","NA","NA","NA","NA","NA","NA","NA","169571","NA","169569","18399","18394","18399","NA","pit experiment","0","0","0","33","yes","1024"
PIT R2 1027.0
PIT R2 597
PIT R2 630
PIT R2 586
"CS3","0","913","0","0","0","Transfer","0","undefined","undefined","undefined","undefined","white","xpyriment","legacy","legacy","0","uniform","undefined","NA","undefined","NA","NA","NA","NA","NA","NA","18","0","0","0","NA","NA","0","0","16","0","0","NA","0","16","NA","NA","NA","NA","NA","NA","NA","NA","0","NA","NA","NA","16","16","16","16","16","16","16","16","16","NA","16","2","0","0","NA","undefined","469","432","05/05/21 17:03:11","The main experiment item","yes","","4. Transfer.osexp","C:\Users\cncadmin\Desktop\Sara G\New_task","no","mono","no","18","no","black","no","yes","768","legacy","176708","16","16","0","C:/Users/cncadmin/Desktop/Sara G/DatiEEG/02mi4.csv","xpyriment","Kafkaesque Koffka","3.2.8","NA","0","0","0","4","0","1","NA","1","16405","NA","16405","2","legacy","1024","2","48000","-16","experiment","2","even","NA","NA","NA","NA","NA","NA","180595","1957","18393","NA","NA","NA","1957","NA","170344","1958","NA","NA","1987","180595","NA","NA","NA","NA","NA","NA","NA","NA","1957","NA","NA","NA","179680","NA","NA","NA","NA","NA","NA","NA","179682","NA","179680","18399","18394","18399","NA","pit experiment","0","0","0","33","yes","1024"
PIT R2 685.0
PIT R2 614
PIT R2 581
PIT R2 591
"CS-","0","839","0","0","0","Transfer","0","undefined","undefined","undefined","undefined","white","xpyriment","legacy","legacy","0","uniform","undefined","NA","undefined","NA","NA","NA","NA","NA","NA","19","0","0","0","NA","NA","0","0","17","0","0","NA","0","17","NA","NA","NA","NA","NA","NA","NA","NA","0","NA","NA","NA","17","17","17","17","17","17","17","17","17","NA","17","2","0","0","NA","undefined","469","432","05/05/21 17:03:11","The main experiment item","yes","","4. Transfer.osexp","C:\Users\cncadmin\Desktop\Sara G\New_task","no","mono","no","18","no","black","no","yes","768","legacy","186625","17","17","0","C:/Users/cncadmin/Desktop/Sara G/DatiEEG/02mi4.csv","xpyriment","Kafkaesque Koffka","3.2.8","NA","0","0","0","4","0","1","NA","1","16405","NA","16405","2","legacy","1024","2","48000","-16","experiment","2","even","NA","NA","NA","NA","NA","NA","190405","1957","18393","NA","NA","NA","1957","NA","180638","1958","NA","NA","1987","190405","NA","NA","NA","NA","NA","NA","NA","NA","1957","NA","NA","NA","189563","NA","NA","NA","NA","NA","NA","NA","189566","NA","189563","18399","18394","18399","NA","pit experiment","0","0","0","44","yes","1024"
PIT R1 691.0
PIT R1 594
PIT R1 744
PIT R1 734
"CS3","0","874","0","0","0","Transfer","0","undefined","undefined","undefined","undefined","white","xpyriment","legacy","legacy","0","uniform","undefined","NA","undefined","NA","NA","NA","NA","NA","NA","20","0","0","0","NA","NA","0","0","18","0","0","NA","0","18","NA","NA","NA","NA","NA","NA","NA","NA","0","NA","NA","NA","18","18","18","18","18","18","18","18","18","NA","18","2","0","0","NA","undefined","469","432","05/05/21 17:03:11","The main experiment item","yes","","4. Transfer.osexp","C:\Users\cncadmin\Desktop\Sara G\New_task","no","mono","no","18","no","black","no","yes","768","legacy","196727","18","18","0","C:/Users/cncadmin/Desktop/Sara G/DatiEEG/02mi4.csv","xpyriment","Kafkaesque Koffka","3.2.8","NA","0","4","0","0","0","1","NA","1","16405","NA","16405","2","legacy","1024","2","48000","-16","experiment","2","even","NA","NA","NA","NA","NA","NA","200549","1957","18393","NA","NA","NA","1957","NA","190445","1958","NA","NA","1987","200549","NA","NA","NA","NA","NA","NA","NA","NA","1957","NA","NA","NA","199673","NA","NA","NA","NA","NA","NA","NA","199675","NA","199673","18399","18394","18399","NA","pit experiment","0","0","0","33","yes","1024"
PIT R2 784.0
PIT R2 632
PIT R2 582
PIT R2 626
"CS1","0","936","0","0","0","Transfer","0","undefined","undefined","undefined","undefined","white","xpyriment","legacy","legacy","0","uniform","undefined","NA","undefined","NA","NA","NA","NA","NA","NA","21","0","0","0","NA","NA","0","0","19","0","0","NA","0","19","NA","NA","NA","NA","NA","NA","NA","NA","0","NA","NA","NA","19","19","19","19","19","19","19","19","19","NA","19","2","0","0","NA","undefined","469","432","05/05/21 17:03:11","The main experiment item","yes","","4. Transfer.osexp","C:\Users\cncadmin\Desktop\Sara G\New_task","no","mono","no","18","no","black","no","yes","768","legacy","206758","19","19","0","C:/Users/cncadmin/Desktop/Sara G/DatiEEG/02mi4.csv","xpyriment","Kafkaesque Koffka","3.2.8","NA","0","0","0","4","0","1","NA","1","16405","NA","16405","2","legacy","1024","2","48000","-16","experiment","2","even","NA","NA","NA","NA","NA","NA","210638","1957","18393","NA","NA","NA","1957","NA","200597","1958","NA","NA","1987","210638","NA","NA","NA","NA","NA","NA","NA","NA","1957","NA","NA","NA","209700","NA","NA","NA","NA","NA","NA","NA","209702","NA","209700","18399","18394","18399","NA","pit experiment","0","0","0","11","yes","1024"
PIT R1 308.0
PIT R1 591
PIT R1 867
PIT R1 664
"CS1","0","585","0","0","0","Transfer","0","undefined","undefined","undefined","undefined","white","xpyriment","legacy","legacy","0","uniform","undefined","NA","undefined","NA","NA","NA","NA","NA","NA","22","0","0","0","NA","NA","0","0","20","0","0","NA","0","20","NA","NA","NA","NA","NA","NA","NA","NA","0","NA","NA","NA","20","20","20","20","20","20","20","20","20","NA","20","2","0","0","NA","undefined","469","432","05/05/21 17:03:11","The main experiment item","yes","","4. Transfer.osexp","C:\Users\cncadmin\Desktop\Sara G\New_task","no","mono","no","18","no","black","no","yes","768","legacy","216655","20","20","0","C:/Users/cncadmin/Desktop/Sara G/DatiEEG/02mi4.csv","xpyriment","Kafkaesque Koffka","3.2.8","NA","0","4","0","0","0","1","NA","1","16405","NA","16405","2","legacy","1024","2","48000","-16","experiment","2","even","NA","NA","NA","NA","NA","NA","220202","1957","18393","NA","NA","NA","1957","NA","210685","1958","NA","NA","1987","220202","NA","NA","NA","NA","NA","NA","NA","NA","1957","NA","NA","NA","219614","NA","NA","NA","NA","NA","NA","NA","219617","NA","219614","18399","18394","18399","NA","pit experiment","0","0","0","11","yes","1024"
PIT R1 774.0
PIT R1 617
PIT R1 831
PIT R1 610
"CS1","0","944","0","0","0","Transfer","0","undefined","undefined","undefined","undefined","white","xpyriment","legacy","legacy","0","uniform","undefined","NA","undefined","NA","NA","NA","NA","NA","NA","23","0","0","0","NA","NA","0","0","21","0","0","NA","0","21","NA","NA","NA","NA","NA","NA","NA","NA","0","NA","NA","NA","21","21","21","21","21","21","21","21","21","NA","21","2","0","0","NA","undefined","469","432","05/05/21 17:03:11","The main experiment item","yes","","4. Transfer.osexp","C:\Users\cncadmin\Desktop\Sara G\New_task","no","mono","no","18","no","black","no","yes","768","legacy","226584","21","21","0","C:/Users/cncadmin/Desktop/Sara G/DatiEEG/02mi4.csv","xpyriment","Kafkaesque Koffka","3.2.8","NA","0","4","0","0","0","1","NA","1","16405","NA","16405","2","legacy","1024","2","48000","-16","experiment","2","even","NA","NA","NA","NA","NA","NA","230466","1957","18393","NA","NA","NA","1957","NA","220237","1958","NA","NA","1987","230466","NA","NA","NA","NA","NA","NA","NA","NA","1957","NA","NA","NA","229520","NA","NA","NA","NA","NA","NA","NA","229522","NA","229520","18399","18394","18399","NA","pit experiment","0","0","0","11","yes","1024"
PIT R1 1128.0
PIT R1 636
PIT R1 580
PIT R1 603
"CS-","0","806","0","0","0","Transfer","0","undefined","undefined","undefined","undefined","white","xpyriment","legacy","legacy","0","uniform","undefined","NA","undefined","NA","NA","NA","NA","NA","NA","24","0","0","0","NA","NA","0","0","22","0","0","NA","0","22","NA","NA","NA","NA","NA","NA","NA","NA","0","NA","NA","NA","22","22","22","22","22","22","22","22","22","NA","22","2","0","0","NA","undefined","469","432","05/05/21 17:03:11","The main experiment item","yes","","4. Transfer.osexp","C:\Users\cncadmin\Desktop\Sara G\New_task","no","mono","no","18","no","black","no","yes","768","legacy","236969","22","22","0","C:/Users/cncadmin/Desktop/Sara G/DatiEEG/02mi4.csv","xpyriment","Kafkaesque Koffka","3.2.8","NA","0","4","0","0","0","1","NA","1","16405","NA","16405","2","legacy","1024","2","48000","-16","experiment","2","even","NA","NA","NA","NA","NA","NA","240790","1957","18393","NA","NA","NA","1957","NA","230499","1958","NA","NA","1987","240790","NA","NA","NA","NA","NA","NA","NA","NA","1957","NA","NA","NA","239983","NA","NA","NA","NA","NA","NA","NA","239984","NA","239982","18399","18394","18399","NA","pit experiment","0","0","0","44","yes","1024"
PIT R1 1020.0
PIT R1 976
PIT R1 605
"CS-","0","862","0","0","0","Transfer","0","undefined","undefined","undefined","undefined","white","xpyriment","legacy","legacy","0","uniform","undefined","NA","undefined","NA","NA","NA","NA","NA","NA","25","0","0","0","NA","NA","0","0","23","0","0","NA","0","23","NA","NA","NA","NA","NA","NA","NA","NA","0","NA","NA","NA","23","23","23","23","23","23","23","23","23","NA","23","2","0","0","NA","undefined","469","432","05/05/21 17:03:11","The main experiment item","yes","","4. Transfer.osexp","C:\Users\cncadmin\Desktop\Sara G\New_task","no","mono","no","18","no","black","no","yes","768","legacy","246956","23","23","0","C:/Users/cncadmin/Desktop/Sara G/DatiEEG/02mi4.csv","xpyriment","Kafkaesque Koffka","3.2.8","NA","0","3","0","0","0","1","NA","1","16405","NA","16405","2","legacy","1024","2","48000","-16","experiment","2","even","NA","NA","NA","NA","NA","NA","250756","1957","18393","NA","NA","NA","1957","NA","240832","1958","NA","NA","1987","250756","NA","NA","NA","NA","NA","NA","NA","NA","1957","NA","NA","NA","249892","NA","NA","NA","NA","NA","NA","NA","249894","NA","249892","18399","18394","18399","NA","pit experiment","0","0","0","44","yes","1024"
PIT R1 931.0
PIT R1 970
PIT R1 597
"CS2","0","820","0","0","0","Transfer","0","undefined","undefined","undefined","undefined","white","xpyriment","legacy","legacy","0","uniform","undefined","NA","undefined","NA","NA","NA","NA","NA","NA","26","0","0","0","NA","NA","0","0","24","0","0","NA","0","24","NA","NA","NA","NA","NA","NA","NA","NA","0","NA","NA","NA","24","24","24","24","24","24","24","24","24","NA","24","2","0","0","NA","undefined","469","432","05/05/21 17:03:11","The main experiment item","yes","","4. Transfer.osexp","C:\Users\cncadmin\Desktop\Sara G\New_task","no","mono","no","18","no","black","no","yes","768","legacy","256829","24","24","0","C:/Users/cncadmin/Desktop/Sara G/DatiEEG/02mi4.csv","xpyriment","Kafkaesque Koffka","3.2.8","NA","0","3","0","0","0","1","NA","1","16405","NA","16405","2","legacy","1024","2","48000","-16","experiment","2","even","NA","NA","NA","NA","NA","NA","260630","1957","18393","NA","NA","NA","1957","NA","250805","1958","NA","NA","1987","260630","NA","NA","NA","NA","NA","NA","NA","NA","1957","NA","NA","NA","259808","NA","NA","NA","NA","NA","NA","NA","259810","NA","259808","18399","18394","18399","NA","pit experiment","0","0","0","22","yes","1024"
PIT R2 842.0
PIT R2 791
PIT R2 612
PIT R2 740
"CS3","0","902","0","0","0","Transfer","0","undefined","undefined","undefined","undefined","white","xpyriment","legacy","legacy","0","uniform","undefined","NA","undefined","NA","NA","NA","NA","NA","NA","27","0","0","0","NA","NA","0","0","25","0","0","NA","0","25","NA","NA","NA","NA","NA","NA","NA","NA","0","NA","NA","NA","25","25","25","25","25","25","25","25","25","NA","25","2","0","0","NA","undefined","469","432","05/05/21 17:03:11","The main experiment item","yes","","4. Transfer.osexp","C:\Users\cncadmin\Desktop\Sara G\New_task","no","mono","no","18","no","black","no","yes","768","legacy","267190","25","25","0","C:/Users/cncadmin/Desktop/Sara G/DatiEEG/02mi4.csv","xpyriment","Kafkaesque Koffka","3.2.8","NA","0","0","0","4","0","1","NA","1","16405","NA","16405","2","legacy","1024","2","48000","-16","experiment","2","even","NA","NA","NA","NA","NA","NA","271056","1957","18393","NA","NA","NA","1957","NA","260679","1958","NA","NA","1987","271056","NA","NA","NA","NA","NA","NA","NA","NA","1957","NA","NA","NA","270152","NA","NA","NA","NA","NA","NA","NA","270153","NA","270151","18399","18394","18399","NA","pit experiment","0","0","0","33","yes","1024"
PIT R2 765.0
PIT R2 651
PIT R2 574
PIT R2 631
"CS3","0","568","0","0","0","Transfer","0","undefined","undefined","undefined","undefined","white","xpyriment","legacy","legacy","0","uniform","undefined","NA","undefined","NA","NA","NA","NA","NA","NA","28","0","0","0","NA","NA","0","0","26","0","0","NA","0","26","NA","NA","NA","NA","NA","NA","NA","NA","0","NA","NA","NA","26","26","26","26","26","26","26","26","26","NA","26","2","0","0","NA","undefined","469","432","05/05/21 17:03:11","The main experiment item","yes","","4. Transfer.osexp","C:\Users\cncadmin\Desktop\Sara G\New_task","no","mono","no","18","no","black","no","yes","768","legacy","277246","26","26","0","C:/Users/cncadmin/Desktop/Sara G/DatiEEG/02mi4.csv","xpyriment","Kafkaesque Koffka","3.2.8","NA","0","0","0","4","0","1","NA","1","16405","NA","16405","2","legacy","1024","2","48000","-16","experiment","2","even","NA","NA","NA","NA","NA","NA","280815","1957","18393","NA","NA","NA","1957","NA","271092","1958","NA","NA","1987","280815","NA","NA","NA","NA","NA","NA","NA","NA","1957","NA","NA","NA","280245","NA","NA","NA","NA","NA","NA","NA","280247","NA","280245","18399","18394","18399","NA","pit experiment","0","0","0","33","yes","1024"
PIT R2 778.0
PIT R2 632
PIT R2 591
PIT R2 737
"CS-","0","842","0","0","0","Transfer","0","undefined","undefined","undefined","undefined","white","xpyriment","legacy","legacy","0","uniform","undefined","NA","undefined","NA","NA","NA","NA","NA","NA","29","0","0","0","NA","NA","0","0","27","0","0","NA","0","27","NA","NA","NA","NA","NA","NA","NA","NA","0","NA","NA","NA","27","27","27","27","27","27","27","27","27","NA","27","2","0","0","NA","undefined","469","432","05/05/21 17:03:11","The main experiment item","yes","","4. Transfer.osexp","C:\Users\cncadmin\Desktop\Sara G\New_task","no","mono","no","18","no","black","no","yes","768","legacy","287126","27","27","0","C:/Users/cncadmin/Desktop/Sara G/DatiEEG/02mi4.csv","xpyriment","Kafkaesque Koffka","3.2.8","NA","0","0","0","4","0","1","NA","1","16405","NA","16405","2","legacy","1024","2","48000","-16","experiment","2","even","NA","NA","NA","NA","NA","NA","290928","1957","18393","NA","NA","NA","1957","NA","280859","1958","NA","NA","1987","290928","NA","NA","NA","NA","NA","NA","NA","NA","1957","NA","NA","NA","290084","NA","NA","NA","NA","NA","NA","NA","290085","NA","290083","18399","18394","18399","NA","pit experiment","0","0","0","44","yes","1024"
PIT R1 1410.0
PIT R1 613
PIT R1 643
"CS3","0","800","0","0","0","Transfer","0","undefined","undefined","undefined","undefined","white","xpyriment","legacy","legacy","0","uniform","undefined","NA","undefined","NA","NA","NA","NA","NA","NA","30","0","0","0","NA","NA","0","0","28","0","0","NA","0","28","NA","NA","NA","NA","NA","NA","NA","NA","0","NA","NA","NA","28","28","28","28","28","28","28","28","28","NA","28","2","0","0","NA","undefined","469","432","05/05/21 17:03:11","The main experiment item","yes","","4. Transfer.osexp","C:\Users\cncadmin\Desktop\Sara G\New_task","no","mono","no","18","no","black","no","yes","768","legacy","297166","28","28","0","C:/Users/cncadmin/Desktop/Sara G/DatiEEG/02mi4.csv","xpyriment","Kafkaesque Koffka","3.2.8","NA","0","3","0","0","0","1","NA","1","16405","NA","16405","2","legacy","1024","2","48000","-16","experiment","2","even","NA","NA","NA","NA","NA","NA","300921","1957","18393","NA","NA","NA","1957","NA","290964","1958","NA","NA","1987","300921","NA","NA","NA","NA","NA","NA","NA","NA","1957","NA","NA","NA","300119","NA","NA","NA","NA","NA","NA","NA","300121","NA","300118","18399","18394","18399","NA","pit experiment","0","0","0","33","yes","1024"
PIT R2 671.0
PIT R2 623
PIT R2 609
PIT R2 632
"CS1","0","524","0","0","0","Transfer","0","undefined","undefined","undefined","undefined","white","xpyriment","legacy","legacy","0","uniform","undefined","NA","undefined","NA","NA","NA","NA","NA","NA","31","0","0","0","NA","NA","0","0","29","0","0","NA","0","29","NA","NA","NA","NA","NA","NA","NA","NA","0","NA","NA","NA","29","29","29","29","29","29","29","29","29","NA","29","2","0","0","NA","undefined","469","432","05/05/21 17:03:11","The main experiment item","yes","","4. Transfer.osexp","C:\Users\cncadmin\Desktop\Sara G\New_task","no","mono","no","18","no","black","no","yes","768","legacy","307022","29","29","0","C:/Users/cncadmin/Desktop/Sara G/DatiEEG/02mi4.csv","xpyriment","Kafkaesque Koffka","3.2.8","NA","0","0","0","4","0","1","NA","1","16405","NA","16405","2","legacy","1024","2","48000","-16","experiment","2","even","NA","NA","NA","NA","NA","NA","310508","1957","18393","NA","NA","NA","1957","NA","300963","1958","NA","NA","1987","310508","NA","NA","NA","NA","NA","NA","NA","NA","1957","NA","NA","NA","309982","NA","NA","NA","NA","NA","NA","NA","309984","NA","309981","18399","18394","18399","NA","pit experiment","0","0","0","11","yes","1024"
PIT R1 773.0
PIT R1 599
PIT R1 657
PIT R1 601
"CS3","0","541","0","0","0","Transfer","0","undefined","undefined","undefined","undefined","white","xpyriment","legacy","legacy","0","uniform","undefined","NA","undefined","NA","NA","NA","NA","NA","NA","32","0","0","0","NA","NA","0","0","30","0","0","NA","0","30","NA","NA","NA","NA","NA","NA","NA","NA","0","NA","NA","NA","30","30","30","30","30","30","30","30","30","NA","30","2","0","0","NA","undefined","469","432","05/05/21 17:03:11","The main experiment item","yes","","4. Transfer.osexp","C:\Users\cncadmin\Desktop\Sara G\New_task","no","mono","no","18","no","black","no","yes","768","legacy","316703","30","30","0","C:/Users/cncadmin/Desktop/Sara G/DatiEEG/02mi4.csv","xpyriment","Kafkaesque Koffka","3.2.8","NA","0","4","0","0","0","1","NA","1","16405","NA","16405","2","legacy","1024","2","48000","-16","experiment","2","even","NA","NA","NA","NA","NA","NA","320189","1957","18393","NA","NA","NA","1957","NA","310544","1958","NA","NA","1987","320189","NA","NA","NA","NA","NA","NA","NA","NA","1957","NA","NA","NA","319646","NA","NA","NA","NA","NA","NA","NA","319648","NA","319646","18399","18394","18399","NA","pit experiment","0","0","0","33","yes","1024"
PIT R2 685.0
PIT R2 640
PIT R2 573
PIT R2 583
"CS1","0","518","0","0","0","Transfer","0","undefined","undefined","undefined","undefined","white","xpyriment","legacy","legacy","0","uniform","undefined","NA","undefined","NA","NA","NA","NA","NA","NA","33","0","0","0","NA","NA","0","0","31","0","0","NA","0","31","NA","NA","NA","NA","NA","NA","NA","NA","0","NA","NA","NA","31","31","31","31","31","31","31","31","31","NA","31","2","0","0","NA","undefined","469","432","05/05/21 17:03:11","The main experiment item","yes","","4. Transfer.osexp","C:\Users\cncadmin\Desktop\Sara G\New_task","no","mono","no","18","no","black","no","yes","768","legacy","326226","31","31","0","C:/Users/cncadmin/Desktop/Sara G/DatiEEG/02mi4.csv","xpyriment","Kafkaesque Koffka","3.2.8","NA","0","0","0","4","0","1","NA","1","16405","NA","16405","2","legacy","1024","2","48000","-16","experiment","2","even","NA","NA","NA","NA","NA","NA","329679","1957","18393","NA","NA","NA","1957","NA","320221","1958","NA","NA","1987","329679","NA","NA","NA","NA","NA","NA","NA","NA","1957","NA","NA","NA","329160","NA","NA","NA","NA","NA","NA","NA","329161","NA","329159","18399","18394","18399","NA","pit experiment","0","0","0","11","yes","1024"
PIT R1 988.0
PIT R1 608
PIT R1 598
PIT R1 601
"CS2","0","617","0","0","0","Transfer","0","undefined","undefined","undefined","undefined","white","xpyriment","legacy","legacy","0","uniform","undefined","NA","undefined","NA","NA","NA","NA","NA","NA","34","0","0","0","NA","NA","0","0","32","0","0","NA","0","32","NA","NA","NA","NA","NA","NA","NA","NA","0","NA","NA","NA","32","32","32","32","32","32","32","32","32","NA","32","2","0","0","NA","undefined","469","432","05/05/21 17:03:11","The main experiment item","yes","","4. Transfer.osexp","C:\Users\cncadmin\Desktop\Sara G\New_task","no","mono","no","18","no","black","no","yes","768","legacy","336037","32","32","0","C:/Users/cncadmin/Desktop/Sara G/DatiEEG/02mi4.csv","xpyriment","Kafkaesque Koffka","3.2.8","NA","0","4","0","0","0","1","NA","1","16405","NA","16405","2","legacy","1024","2","48000","-16","experiment","2","even","NA","NA","NA","NA","NA","NA","339615","1957","18393","NA","NA","NA","1957","NA","329724","1958","NA","NA","1987","339615","NA","NA","NA","NA","NA","NA","NA","NA","1957","NA","NA","NA","338996","NA","NA","NA","NA","NA","NA","NA","338998","NA","338996","18399","18394","18399","NA","pit experiment","0","0","0","22","yes","1024"
PIT R2 782.0
PIT R2 606
PIT R2 576
PIT R2 569
"CS3","0","970","0","0","0","Transfer","0","undefined","undefined","undefined","undefined","white","xpyriment","legacy","legacy","0","uniform","undefined","NA","undefined","NA","NA","NA","NA","NA","NA","35","0","0","0","NA","NA","0","0","33","0","0","NA","0","33","NA","NA","NA","NA","NA","NA","NA","NA","0","NA","NA","NA","33","33","33","33","33","33","33","33","33","NA","33","2","0","0","NA","undefined","469","432","05/05/21 17:03:11","The main experiment item","yes","","4. Transfer.osexp","C:\Users\cncadmin\Desktop\Sara G\New_task","no","mono","no","18","no","black","no","yes","768","legacy","345716","33","33","0","C:/Users/cncadmin/Desktop/Sara G/DatiEEG/02mi4.csv","xpyriment","Kafkaesque Koffka","3.2.8","NA","0","0","0","4","0","1","NA","1","16405","NA","16405","2","legacy","1024","2","48000","-16","experiment","2","even","NA","NA","NA","NA","NA","NA","349655","1957","18393","NA","NA","NA","1957","NA","339656","1958","NA","NA","1987","349655","NA","NA","NA","NA","NA","NA","NA","NA","1957","NA","NA","NA","348683","NA","NA","NA","NA","NA","NA","NA","348685","NA","348683","18399","18394","18399","NA","pit experiment","0","0","0","33","yes","1024"
PIT R2 901.0
PIT R2 619
PIT R2 593
PIT R2 625
"CS-","0","644","0","0","0","Transfer","0","undefined","undefined","undefined","undefined","white","xpyriment","legacy","legacy","0","uniform","undefined","NA","undefined","NA","NA","NA","NA","NA","NA","36","0","0","0","NA","NA","0","0","34","0","0","NA","0","34","NA","NA","NA","NA","NA","NA","NA","NA","0","NA","NA","NA","34","34","34","34","34","34","34","34","34","NA","34","2","0","0","NA","undefined","469","432","05/05/21 17:03:11","The main experiment item","yes","","4. Transfer.osexp","C:\Users\cncadmin\Desktop\Sara G\New_task","no","mono","no","18","no","black","no","yes","768","legacy","355971","34","34","0","C:/Users/cncadmin/Desktop/Sara G/DatiEEG/02mi4.csv","xpyriment","Kafkaesque Koffka","3.2.8","NA","0","0","0","4","0","1","NA","1","16405","NA","16405","2","legacy","1024","2","48000","-16","experiment","2","even","NA","NA","NA","NA","NA","NA","359558","1957","18393","NA","NA","NA","1957","NA","349695","1958","NA","NA","1987","359558","NA","NA","NA","NA","NA","NA","NA","NA","1957","NA","NA","NA","358913","NA","NA","NA","NA","NA","NA","NA","358914","NA","358912","18399","18394","18399","NA","pit experiment","0","0","0","44","yes","1024"
PIT R1 729.0
PIT R1 608
PIT R1 602
PIT R1 592
"CS3","0","540","0","0","0","Transfer","0","undefined","undefined","undefined","undefined","white","xpyriment","legacy","legacy","0","uniform","undefined","NA","undefined","NA","NA","NA","NA","NA","NA","37","0","0","0","NA","NA","0","0","35","0","0","NA","0","35","NA","NA","NA","NA","NA","NA","NA","NA","0","NA","NA","NA","35","35","35","35","35","35","35","35","35","NA","35","2","0","0","NA","undefined","469","432","05/05/21 17:03:11","The main experiment item","yes","","4. Transfer.osexp","C:\Users\cncadmin\Desktop\Sara G\New_task","no","mono","no","18","no","black","no","yes","768","legacy","365663","35","35","0","C:/Users/cncadmin/Desktop/Sara G/DatiEEG/02mi4.csv","xpyriment","Kafkaesque Koffka","3.2.8","NA","0","4","0","0","0","1","NA","1","16405","NA","16405","2","legacy","1024","2","48000","-16","experiment","2","even","NA","NA","NA","NA","NA","NA","369147","1957","18393","NA","NA","NA","1957","NA","359594","1958","NA","NA","1987","369147","NA","NA","NA","NA","NA","NA","NA","NA","1957","NA","NA","NA","368605","NA","NA","NA","NA","NA","NA","NA","368607","NA","368605","18399","18394","18399","NA","pit experiment","0","0","0","33","yes","1024"
PIT R2 930.0
PIT R2 736
PIT R2 580
PIT R2 590
"CS3","0","913","0","0","0","Transfer","0","undefined","undefined","undefined","undefined","white","xpyriment","legacy","legacy","0","uniform","undefined","NA","undefined","NA","NA","NA","NA","NA","NA","38","0","0","0","NA","NA","0","0","36","0","0","NA","0","36","NA","NA","NA","NA","NA","NA","NA","NA","0","NA","NA","NA","36","36","36","36","36","36","36","36","36","NA","36","2","0","0","NA","undefined","469","432","05/05/21 17:03:11","The main experiment item","yes","","4. Transfer.osexp","C:\Users\cncadmin\Desktop\Sara G\New_task","no","mono","no","18","no","black","no","yes","768","legacy","375560","36","36","0","C:/Users/cncadmin/Desktop/Sara G/DatiEEG/02mi4.csv","xpyriment","Kafkaesque Koffka","3.2.8","NA","0","0","0","4","0","1","NA","1","16405","NA","16405","2","legacy","1024","2","48000","-16","experiment","2","even","NA","NA","NA","NA","NA","NA","379424","1957","18393","NA","NA","NA","1957","NA","369192","1958","NA","NA","1987","379424","NA","NA","NA","NA","NA","NA","NA","NA","1957","NA","NA","NA","378509","NA","NA","NA","NA","NA","NA","NA","378511","NA","378509","18399","18394","18399","NA","pit experiment","0","0","0","33","yes","1024"
PIT R2 889.0
PIT R2 618
PIT R2 584
PIT R2 593
"CS3","0","845","0","0","0","Transfer","0","undefined","undefined","undefined","undefined","white","xpyriment","legacy","legacy","0","uniform","undefined","NA","undefined","NA","NA","NA","NA","NA","NA","39","0","0","0","NA","NA","0","0","37","0","0","NA","0","37","NA","NA","NA","NA","NA","NA","NA","NA","0","NA","NA","NA","37","37","37","37","37","37","37","37","37","NA","37","2","0","0","NA","undefined","469","432","05/05/21 17:03:11","The main experiment item","yes","","4. Transfer.osexp","C:\Users\cncadmin\Desktop\Sara G\New_task","no","mono","no","18","no","black","no","yes","768","legacy","385681","37","37","0","C:/Users/cncadmin/Desktop/Sara G/DatiEEG/02mi4.csv","xpyriment","Kafkaesque Koffka","3.2.8","NA","0","0","0","4","0","1","NA","1","16405","NA","16405","2","legacy","1024","2","48000","-16","experiment","2","even","NA","NA","NA","NA","NA","NA","389460","1957","18393","NA","NA","NA","1957","NA","379465","1958","NA","NA","1987","389460","NA","NA","NA","NA","NA","NA","NA","NA","1957","NA","NA","NA","388613","NA","NA","NA","NA","NA","NA","NA","388614","NA","388612","18399","18394","18399","NA","pit experiment","0","0","0","33","yes","1024"
PIT R2 1031.0
PIT R2 619
PIT R2 616
PIT R2 678
"CS-","0","909","0","0","0","Transfer","0","undefined","undefined","undefined","undefined","white","xpyriment","legacy","legacy","0","uniform","undefined","NA","undefined","NA","NA","NA","NA","NA","NA","40","0","0","0","NA","NA","0","0","38","0","0","NA","0","38","NA","NA","NA","NA","NA","NA","NA","NA","0","NA","NA","NA","38","38","38","38","38","38","38","38","38","NA","38","2","0","0","NA","undefined","469","432","05/05/21 17:03:11","The main experiment item","yes","","4. Transfer.osexp","C:\Users\cncadmin\Desktop\Sara G\New_task","no","mono","no","18","no","black","no","yes","768","legacy","395974","38","38","0","C:/Users/cncadmin/Desktop/Sara G/DatiEEG/02mi4.csv","xpyriment","Kafkaesque Koffka","3.2.8","NA","0","0","0","4","0","1","NA","1","16405","NA","16405","2","legacy","1024","2","48000","-16","experiment","2","even","NA","NA","NA","NA","NA","NA","399876","1957","18393","NA","NA","NA","1957","NA","389505","1958","NA","NA","1987","399876","NA","NA","NA","NA","NA","NA","NA","NA","1957","NA","NA","NA","398964","NA","NA","NA","NA","NA","NA","NA","398966","NA","398964","18399","18394","18399","NA","pit experiment","0","0","0","44","yes","1024"
PIT R1 712.0
PIT R1 622
PIT R1 624
PIT R1 650
"CS3","0","503","0","0","0","Transfer","0","undefined","undefined","undefined","undefined","white","xpyriment","legacy","legacy","0","uniform","undefined","NA","undefined","NA","NA","NA","NA","NA","NA","41","0","0","0","NA","NA","0","0","39","0","0","NA","0","39","NA","NA","NA","NA","NA","NA","NA","NA","0","NA","NA","NA","39","39","39","39","39","39","39","39","39","NA","39","2","0","0","NA","undefined","469","432","05/05/21 17:03:11","The main experiment item","yes","","4. Transfer.osexp","C:\Users\cncadmin\Desktop\Sara G\New_task","no","mono","no","18","no","black","no","yes","768","legacy","406062","39","39","0","C:/Users/cncadmin/Desktop/Sara G/DatiEEG/02mi4.csv","xpyriment","Kafkaesque Koffka","3.2.8","NA","0","4","0","0","0","1","NA","1","16405","NA","16405","2","legacy","1024","2","48000","-16","experiment","2","even","NA","NA","NA","NA","NA","NA","409523","1957","18393","NA","NA","NA","1957","NA","399918","1958","NA","NA","1987","409523","NA","NA","NA","NA","NA","NA","NA","NA","1957","NA","NA","NA","409018","NA","NA","NA","NA","NA","NA","NA","409020","NA","409018","18399","18394","18399","NA","pit experiment","0","0","0","33","yes","1024"
PIT R2 933.0
PIT R2 601
PIT R2 581
PIT R2 610
"CS3","0","501","0","0","0","Transfer","0","undefined","undefined","undefined","undefined","white","xpyriment","legacy","legacy","0","uniform","undefined","NA","undefined","NA","NA","NA","NA","NA","NA","42","0","0","0","NA","NA","0","0","40","0","0","NA","0","40","NA","NA","NA","NA","NA","NA","NA","NA","0","NA","NA","NA","40","40","40","40","40","40","40","40","40","NA","40","2","0","0","NA","undefined","469","432","05/05/21 17:03:11","The main experiment item","yes","","4. Transfer.osexp","C:\Users\cncadmin\Desktop\Sara G\New_task","no","mono","no","18","no","black","no","yes","768","legacy","415821","40","40","0","C:/Users/cncadmin/Desktop/Sara G/DatiEEG/02mi4.csv","xpyriment","Kafkaesque Koffka","3.2.8","NA","0","0","0","4","0","1","NA","1","16405","NA","16405","2","legacy","1024","2","48000","-16","experiment","2","even","NA","NA","NA","NA","NA","NA","419288","1957","18393","NA","NA","NA","1957","NA","409568","1958","NA","NA","1987","419288","NA","NA","NA","NA","NA","NA","NA","NA","1957","NA","NA","NA","418785","NA","NA","NA","NA","NA","NA","NA","418787","NA","418785","18399","18394","18399","NA","pit experiment","0","0","0","33","yes","1024"
PIT R2 1416.0
PIT R2 595
PIT R2 653
"CS2","0","661","0","0","0","Transfer","0","undefined","undefined","undefined","undefined","white","xpyriment","legacy","legacy","0","uniform","undefined","NA","undefined","NA","NA","NA","NA","NA","NA","43","0","0","0","NA","NA","0","0","41","0","0","NA","0","41","NA","NA","NA","NA","NA","NA","NA","NA","0","NA","NA","NA","41","41","41","41","41","41","41","41","41","NA","41","2","0","0","NA","undefined","469","432","05/05/21 17:03:11","The main experiment item","yes","","4. Transfer.osexp","C:\Users\cncadmin\Desktop\Sara G\New_task","no","mono","no","18","no","black","no","yes","768","legacy","425525","41","41","0","C:/Users/cncadmin/Desktop/Sara G/DatiEEG/02mi4.csv","xpyriment","Kafkaesque Koffka","3.2.8","NA","0","0","0","3","0","1","NA","1","16405","NA","16405","2","legacy","1024","2","48000","-16","experiment","2","even","NA","NA","NA","NA","NA","NA","429232","1957","18393","NA","NA","NA","1957","NA","419332","1958","NA","NA","1987","429232","NA","NA","NA","NA","NA","NA","NA","NA","1957","NA","NA","NA","428569","NA","NA","NA","NA","NA","NA","NA","428571","NA","428569","18399","18394","18399","NA","pit experiment","0","0","0","22","yes","1024"
PIT R2 323.0
PIT R2 651
PIT R2 667
PIT R2 597
PIT R2 755
"CS-","0","667","0","0","0","Transfer","0","undefined","undefined","undefined","undefined","white","xpyriment","legacy","legacy","0","uniform","undefined","NA","undefined","NA","NA","NA","NA","NA","NA","44","0","0","0","NA","NA","0","0","42","0","0","NA","0","42","NA","NA","NA","NA","NA","NA","NA","NA","0","NA","NA","NA","42","42","42","42","42","42","42","42","42","NA","42","2","0","0","NA","undefined","469","432","05/05/21 17:03:11","The main experiment item","yes","","4. Transfer.osexp","C:\Users\cncadmin\Desktop\Sara G\New_task","no","mono","no","18","no","black","no","yes","768","legacy","435789","42","42","0","C:/Users/cncadmin/Desktop/Sara G/DatiEEG/02mi4.csv","xpyriment","Kafkaesque Koffka","3.2.8","NA","0","0","0","5","0","1","NA","1","16405","NA","16405","2","legacy","1024","2","48000","-16","experiment","2","even","NA","NA","NA","NA","NA","NA","439457","1957","18393","NA","NA","NA","1957","NA","429263","1958","NA","NA","1987","439457","NA","NA","NA","NA","NA","NA","NA","NA","1957","NA","NA","NA","438788","NA","NA","NA","NA","NA","NA","NA","438790","NA","438788","18399","18394","18399","NA","pit experiment","0","0","0","44","yes","1024"
PIT R1 951.0
PIT R1 616
PIT R1 611
PIT R1 845
"CS1","0","787","0","0","0","Transfer","0","undefined","undefined","undefined","undefined","white","xpyriment","legacy","legacy","0","uniform","undefined","NA","undefined","NA","NA","NA","NA","NA","NA","45","0","0","0","NA","NA","0","0","43","0","0","NA","0","43","NA","NA","NA","NA","NA","NA","NA","NA","0","NA","NA","NA","43","43","43","43","43","43","43","43","43","NA","43","2","0","0","NA","undefined","469","432","05/05/21 17:03:11","The main experiment item","yes","","4. Transfer.osexp","C:\Users\cncadmin\Desktop\Sara G\New_task","no","mono","no","18","no","black","no","yes","768","legacy","446053","43","43","0","C:/Users/cncadmin/Desktop/Sara G/DatiEEG/02mi4.csv","xpyriment","Kafkaesque Koffka","3.2.8","NA","0","4","0","0","0","1","NA","1","16405","NA","16405","2","legacy","1024","2","48000","-16","experiment","2","even","NA","NA","NA","NA","NA","NA","449768","1957","18393","NA","NA","NA","1957","NA","439498","1958","NA","NA","1987","449768","NA","NA","NA","NA","NA","NA","NA","NA","1957","NA","NA","NA","448979","NA","NA","NA","NA","NA","NA","NA","448981","NA","448979","18399","18394","18399","NA","pit experiment","0","0","0","11","yes","1024"
PIT R1 301.0
PIT R1 612
PIT R1 622
PIT R1 1248
"CS-","0","834","0","0","0","Transfer","0","undefined","undefined","undefined","undefined","white","xpyriment","legacy","legacy","0","uniform","undefined","NA","undefined","NA","NA","NA","NA","NA","NA","46","0","0","0","NA","NA","0","0","44","0","0","NA","0","44","NA","NA","NA","NA","NA","NA","NA","NA","0","NA","NA","NA","44","44","44","44","44","44","44","44","44","NA","44","2","0","0","NA","undefined","469","432","05/05/21 17:03:11","The main experiment item","yes","","4. Transfer.osexp","C:\Users\cncadmin\Desktop\Sara G\New_task","no","mono","no","18","no","black","no","yes","768","legacy","456125","44","44","0","C:/Users/cncadmin/Desktop/Sara G/DatiEEG/02mi4.csv","xpyriment","Kafkaesque Koffka","3.2.8","NA","0","4","0","0","0","1","NA","1","16405","NA","16405","2","legacy","1024","2","48000","-16","experiment","2","even","NA","NA","NA","NA","NA","NA","459946","1957","18393","NA","NA","NA","1957","NA","449809","1958","NA","NA","1987","459946","NA","NA","NA","NA","NA","NA","NA","NA","1957","NA","NA","NA","459110","NA","NA","NA","NA","NA","NA","NA","459111","NA","459110","18399","18394","18399","NA","pit experiment","0","0","0","44","yes","1024"
PIT R1 927.0
PIT R1 664
PIT R1 591
PIT R1 601
"CS2","0","960","0","0","0","Transfer","0","undefined","undefined","undefined","undefined","white","xpyriment","legacy","legacy","0","uniform","undefined","NA","undefined","NA","NA","NA","NA","NA","NA","47","0","0","0","NA","NA","0","0","45","0","0","NA","0","45","NA","NA","NA","NA","NA","NA","NA","NA","0","NA","NA","NA","45","45","45","45","45","45","45","45","45","NA","45","2","0","0","NA","undefined","469","432","05/05/21 17:03:11","The main experiment item","yes","","4. Transfer.osexp","C:\Users\cncadmin\Desktop\Sara G\New_task","no","mono","no","18","no","black","no","yes","768","legacy","466293","45","45","0","C:/Users/cncadmin/Desktop/Sara G/DatiEEG/02mi4.csv","xpyriment","Kafkaesque Koffka","3.2.8","NA","0","4","0","0","0","1","NA","1","16405","NA","16405","2","legacy","1024","2","48000","-16","experiment","2","even","NA","NA","NA","NA","NA","NA","470213","1957","18393","NA","NA","NA","1957","NA","459982","1958","NA","NA","1987","470213","NA","NA","NA","NA","NA","NA","NA","NA","1957","NA","NA","NA","469251","NA","NA","NA","NA","NA","NA","NA","469253","NA","469251","18399","18394","18399","NA","pit experiment","0","0","0","22","yes","1024"
PIT R2 1267.0
PIT R2 623
PIT R2 580
"CS2","0","558","0","0","0","Transfer","0","undefined","undefined","undefined","undefined","white","xpyriment","legacy","legacy","0","uniform","undefined","NA","undefined","NA","NA","NA","NA","NA","NA","48","0","0","0","NA","NA","0","0","46","0","0","NA","0","46","NA","NA","NA","NA","NA","NA","NA","NA","0","NA","NA","NA","46","46","46","46","46","46","46","46","46","NA","46","2","0","0","NA","undefined","469","432","05/05/21 17:03:11","The main experiment item","yes","","4. Transfer.osexp","C:\Users\cncadmin\Desktop\Sara G\New_task","no","mono","no","18","no","black","no","yes","768","legacy","476256","46","46","0","C:/Users/cncadmin/Desktop/Sara G/DatiEEG/02mi4.csv","xpyriment","Kafkaesque Koffka","3.2.8","NA","0","0","0","3","0","1","NA","1","16405","NA","16405","2","legacy","1024","2","48000","-16","experiment","2","even","NA","NA","NA","NA","NA","NA","479794","1957","18393","NA","NA","NA","1957","NA","470246","1958","NA","NA","1987","479794","NA","NA","NA","NA","NA","NA","NA","NA","1957","NA","NA","NA","479234","NA","NA","NA","NA","NA","NA","NA","479236","NA","479234","18399","18394","18399","NA","pit experiment","0","0","0","22","yes","1024"
PIT R2 838.0
PIT R2 611
PIT R2 630
PIT R2 608
"CS3","0","777","0","0","0","Transfer","0","undefined","undefined","undefined","undefined","white","xpyriment","legacy","legacy","0","uniform","undefined","NA","undefined","NA","NA","NA","NA","NA","NA","49","0","0","0","NA","NA","0","0","47","0","0","NA","0","47","NA","NA","NA","NA","NA","NA","NA","NA","0","NA","NA","NA","47","47","47","47","47","47","47","47","47","NA","47","2","0","0","NA","undefined","469","432","05/05/21 17:03:11","The main experiment item","yes","","4. Transfer.osexp","C:\Users\cncadmin\Desktop\Sara G\New_task","no","mono","no","18","no","black","no","yes","768","legacy","486037","47","47","0","C:/Users/cncadmin/Desktop/Sara G/DatiEEG/02mi4.csv","xpyriment","Kafkaesque Koffka","3.2.8","NA","0","0","0","4","0","1","NA","1","16405","NA","16405","2","legacy","1024","2","48000","-16","experiment","2","even","NA","NA","NA","NA","NA","NA","489763","1957","18393","NA","NA","NA","1957","NA","479828","1958","NA","NA","1987","489763","NA","NA","NA","NA","NA","NA","NA","NA","1957","NA","NA","NA","488984","NA","NA","NA","NA","NA","NA","NA","488986","NA","488984","18399","18394","18399","NA","pit experiment","0","0","0","33","yes","1024"
PIT R2 929.0
PIT R2 623
PIT R2 584
PIT R2 600
"CS-","0","815","0","0","0","Transfer","0","undefined","undefined","undefined","undefined","white","xpyriment","legacy","legacy","0","uniform","undefined","NA","undefined","NA","NA","NA","NA","NA","NA","50","0","0","0","NA","NA","0","0","48","0","0","NA","0","48","NA","NA","NA","NA","NA","NA","NA","NA","0","NA","NA","NA","48","48","48","48","48","48","48","48","48","NA","48","2","0","0","NA","undefined","469","432","05/05/21 17:03:11","The main experiment item","yes","","4. Transfer.osexp","C:\Users\cncadmin\Desktop\Sara G\New_task","no","mono","no","18","no","black","no","yes","768","legacy","496052","48","48","0","C:/Users/cncadmin/Desktop/Sara G/DatiEEG/02mi4.csv","xpyriment","Kafkaesque Koffka","3.2.8","NA","0","0","0","4","0","1","NA","1","16405","NA","16405","2","legacy","1024","2","48000","-16","experiment","2","even","NA","NA","NA","NA","NA","NA","499879","1957","18393","NA","NA","NA","1957","NA","489793","1958","NA","NA","1987","499879","NA","NA","NA","NA","NA","NA","NA","NA","1957","NA","NA","NA","499062","NA","NA","NA","NA","NA","NA","NA","499064","NA","499062","18399","18394","18399","NA","pit experiment","0","0","0","44","yes","1024"
PIT R1 1316.0
PIT R1 628
PIT R1 621
"CS-","0","971","0","0","0","Transfer","0","undefined","undefined","undefined","undefined","white","xpyriment","legacy","legacy","0","uniform","undefined","NA","undefined","NA","NA","NA","NA","NA","NA","51","0","0","0","NA","NA","0","0","49","0","0","NA","0","49","NA","NA","NA","NA","NA","NA","NA","NA","0","NA","NA","NA","49","49","49","49","49","49","49","49","49","NA","49","2","0","0","NA","undefined","469","432","05/05/21 17:03:11","The main experiment item","yes","","4. Transfer.osexp","C:\Users\cncadmin\Desktop\Sara G\New_task","no","mono","no","18","no","black","no","yes","768","legacy","506005","49","49","0","C:/Users/cncadmin/Desktop/Sara G/DatiEEG/02mi4.csv","xpyriment","Kafkaesque Koffka","3.2.8","NA","0","3","0","0","0","1","NA","1","16405","NA","16405","2","legacy","1024","2","48000","-16","experiment","2","even","NA","NA","NA","NA","NA","NA","509906","1957","18393","NA","NA","NA","1957","NA","499907","1958","NA","NA","1987","509906","NA","NA","NA","NA","NA","NA","NA","NA","1957","NA","NA","NA","508932","NA","NA","NA","NA","NA","NA","NA","508934","NA","508932","18399","18394","18399","NA","pit experiment","0","0","0","44","yes","1024"
PIT R1 795.0
PIT R1 671
PIT R1 600
PIT R1 586
"CS3","0","933","0","0","0","Transfer","0","undefined","undefined","undefined","undefined","white","xpyriment","legacy","legacy","0","uniform","undefined","NA","undefined","NA","NA","NA","NA","NA","NA","52","0","0","0","NA","NA","0","0","50","0","0","NA","0","50","NA","NA","NA","NA","NA","NA","NA","NA","0","NA","NA","NA","50","50","50","50","50","50","50","50","50","NA","50","2","0","0","NA","undefined","469","432","05/05/21 17:03:11","The main experiment item","yes","","4. Transfer.osexp","C:\Users\cncadmin\Desktop\Sara G\New_task","no","mono","no","18","no","black","no","yes","768","legacy","516126","50","50","0","C:/Users/cncadmin/Desktop/Sara G/DatiEEG/02mi4.csv","xpyriment","Kafkaesque Koffka","3.2.8","NA","0","4","0","0","0","1","NA","1","16405","NA","16405","2","legacy","1024","2","48000","-16","experiment","2","even","NA","NA","NA","NA","NA","NA","520052","1957","18393","NA","NA","NA","1957","NA","509947","1958","NA","NA","1987","520052","NA","NA","NA","NA","NA","NA","NA","NA","1957","NA","NA","NA","519117","NA","NA","NA","NA","NA","NA","NA","519119","NA","519117","18399","18394","18399","NA","pit experiment","0","0","0","33","yes","1024"
PIT R2 1955.0
PIT R2 696
"CS2","0","823","0","0","0","Transfer","0","undefined","undefined","undefined","undefined","white","xpyriment","legacy","legacy","0","uniform","undefined","NA","undefined","NA","NA","NA","NA","NA","NA","53","0","0","0","NA","NA","0","0","51","0","0","NA","0","51","NA","NA","NA","NA","NA","NA","NA","NA","0","NA","NA","NA","51","51","51","51","51","51","51","51","51","NA","51","2","0","0","NA","undefined","469","432","05/05/21 17:03:11","The main experiment item","yes","","4. Transfer.osexp","C:\Users\cncadmin\Desktop\Sara G\New_task","no","mono","no","18","no","black","no","yes","768","legacy","526269","51","51","0","C:/Users/cncadmin/Desktop/Sara G/DatiEEG/02mi4.csv","xpyriment","Kafkaesque Koffka","3.2.8","NA","0","0","0","2","0","1","NA","1","16405","NA","16405","2","legacy","1024","2","48000","-16","experiment","2","even","NA","NA","NA","NA","NA","NA","530044","1957","18393","NA","NA","NA","1957","NA","520094","1958","NA","NA","1987","530044","NA","NA","NA","NA","NA","NA","NA","NA","1957","NA","NA","NA","529218","NA","NA","NA","NA","NA","NA","NA","529220","NA","529218","18399","18394","18399","NA","pit experiment","0","0","0","22","yes","1024"
PIT R2 1262.0
PIT R2 641
PIT R2 615
"CS3","0","517","0","0","0","Transfer","0","undefined","undefined","undefined","undefined","white","xpyriment","legacy","legacy","0","uniform","undefined","NA","undefined","NA","NA","NA","NA","NA","NA","54","0","0","0","NA","NA","0","0","52","0","0","NA","0","52","NA","NA","NA","NA","NA","NA","NA","NA","0","NA","NA","NA","52","52","52","52","52","52","52","52","52","NA","52","2","0","0","NA","undefined","469","432","05/05/21 17:03:11","The main experiment item","yes","","4. Transfer.osexp","C:\Users\cncadmin\Desktop\Sara G\New_task","no","mono","no","18","no","black","no","yes","768","legacy","536124","52","52","0","C:/Users/cncadmin/Desktop/Sara G/DatiEEG/02mi4.csv","xpyriment","Kafkaesque Koffka","3.2.8","NA","0","0","0","3","0","1","NA","1","16405","NA","16405","2","legacy","1024","2","48000","-16","experiment","2","even","NA","NA","NA","NA","NA","NA","539629","1957","18393","NA","NA","NA","1957","NA","530084","1958","NA","NA","1987","539629","NA","NA","NA","NA","NA","NA","NA","NA","1957","NA","NA","NA","539110","NA","NA","NA","NA","NA","NA","NA","539112","NA","539110","18399","18394","18399","NA","pit experiment","0","0","0","33","yes","1024"
PIT R2 808.0
PIT R2 630
PIT R2 613
PIT R2 723
"CS-","0","630","0","0","0","Transfer","0","undefined","undefined","undefined","undefined","white","xpyriment","legacy","legacy","0","uniform","undefined","NA","undefined","NA","NA","NA","NA","NA","NA","55","0","0","0","NA","NA","0","0","53","0","0","NA","0","53","NA","NA","NA","NA","NA","NA","NA","NA","0","NA","NA","NA","53","53","53","53","53","53","53","53","53","NA","53","2","0","0","NA","undefined","469","432","05/05/21 17:03:11","The main experiment item","yes","","4. Transfer.osexp","C:\Users\cncadmin\Desktop\Sara G\New_task","no","mono","no","18","no","black","no","yes","768","legacy","545995","53","53","0","C:/Users/cncadmin/Desktop/Sara G/DatiEEG/02mi4.csv","xpyriment","Kafkaesque Koffka","3.2.8","NA","0","0","0","4","0","1","NA","1","16405","NA","16405","2","legacy","1024","2","48000","-16","experiment","2","even","NA","NA","NA","NA","NA","NA","549548","1957","18393","NA","NA","NA","1957","NA","539686","1958","NA","NA","1987","549548","NA","NA","NA","NA","NA","NA","NA","NA","1957","NA","NA","NA","548916","NA","NA","NA","NA","NA","NA","NA","548918","NA","548916","18399","18394","18399","NA","pit experiment","0","0","0","44","yes","1024"
PIT R1 2010.0
PIT R1 603
"CS-","0","850","0","0","0","Transfer","0","undefined","undefined","undefined","undefined","white","xpyriment","legacy","legacy","0","uniform","undefined","NA","undefined","NA","NA","NA","NA","NA","NA","56","0","0","0","NA","NA","0","0","54","0","0","NA","0","54","NA","NA","NA","NA","NA","NA","NA","NA","0","NA","NA","NA","54","54","54","54","54","54","54","54","54","NA","54","2","0","0","NA","undefined","469","432","05/05/21 17:03:11","The main experiment item","yes","","4. Transfer.osexp","C:\Users\cncadmin\Desktop\Sara G\New_task","no","mono","no","18","no","black","no","yes","768","legacy","555743","54","54","0","C:/Users/cncadmin/Desktop/Sara G/DatiEEG/02mi4.csv","xpyriment","Kafkaesque Koffka","3.2.8","NA","0","2","0","0","0","1","NA","1","16405","NA","16405","2","legacy","1024","2","48000","-16","experiment","2","even","NA","NA","NA","NA","NA","NA","559567","1957","18393","NA","NA","NA","1957","NA","549588","1958","NA","NA","1987","559567","NA","NA","NA","NA","NA","NA","NA","NA","1957","NA","NA","NA","558715","NA","NA","NA","NA","NA","NA","NA","558717","NA","558715","18399","18394","18399","NA","pit experiment","0","0","0","44","yes","1024"
PIT R1 1223.0
PIT R1 602
PIT R1 588
"CS3","0","892","0","0","0","Transfer","0","undefined","undefined","undefined","undefined","white","xpyriment","legacy","legacy","0","uniform","undefined","NA","undefined","NA","NA","NA","NA","NA","NA","57","0","0","0","NA","NA","0","0","55","0","0","NA","0","55","NA","NA","NA","NA","NA","NA","NA","NA","0","NA","NA","NA","55","55","55","55","55","55","55","55","55","NA","55","2","0","0","NA","undefined","469","432","05/05/21 17:03:11","The main experiment item","yes","","4. Transfer.osexp","C:\Users\cncadmin\Desktop\Sara G\New_task","no","mono","no","18","no","black","no","yes","768","legacy","565562","55","55","0","C:/Users/cncadmin/Desktop/Sara G/DatiEEG/02mi4.csv","xpyriment","Kafkaesque Koffka","3.2.8","NA","0","3","0","0","0","1","NA","1","16405","NA","16405","2","legacy","1024","2","48000","-16","experiment","2","even","NA","NA","NA","NA","NA","NA","569413","1957","18393","NA","NA","NA","1957","NA","559616","1958","NA","NA","1987","569413","NA","NA","NA","NA","NA","NA","NA","NA","1957","NA","NA","NA","568519","NA","NA","NA","NA","NA","NA","NA","568521","NA","568519","18399","18394","18399","NA","pit experiment","0","0","0","33","yes","1024"
PIT R2 1335.0
PIT R2 632
PIT R2 596
"CS2","0","960","0","0","0","Transfer","0","undefined","undefined","undefined","undefined","white","xpyriment","legacy","legacy","0","uniform","undefined","NA","undefined","NA","NA","NA","NA","NA","NA","58","0","0","0","NA","NA","0","0","56","0","0","NA","0","56","NA","NA","NA","NA","NA","NA","NA","NA","0","NA","NA","NA","56","56","56","56","56","56","56","56","56","NA","56","2","0","0","NA","undefined","469","432","05/05/21 17:03:11","The main experiment item","yes","","4. Transfer.osexp","C:\Users\cncadmin\Desktop\Sara G\New_task","no","mono","no","18","no","black","no","yes","768","legacy","575696","56","56","0","C:/Users/cncadmin/Desktop/Sara G/DatiEEG/02mi4.csv","xpyriment","Kafkaesque Koffka","3.2.8","NA","0","0","0","3","0","1","NA","1","16405","NA","16405","2","legacy","1024","2","48000","-16","experiment","2","even","NA","NA","NA","NA","NA","NA","579620","1957","18393","NA","NA","NA","1957","NA","569593","1958","NA","NA","1987","579620","NA","NA","NA","NA","NA","NA","NA","NA","1957","NA","NA","NA","578658","NA","NA","NA","NA","NA","NA","NA","578660","NA","578658","18399","18394","18399","NA","pit experiment","0","0","0","22","yes","1024"
PIT R2 723.0
PIT R2 613
PIT R2 589
PIT R2 626
"CS-","0","898","0","0","0","Transfer","0","undefined","undefined","undefined","undefined","white","xpyriment","legacy","legacy","0","uniform","undefined","NA","undefined","NA","NA","NA","NA","NA","NA","59","0","0","0","NA","NA","0","0","57","0","0","NA","0","57","NA","NA","NA","NA","NA","NA","NA","NA","0","NA","NA","NA","57","57","57","57","57","57","57","57","57","NA","57","2","0","0","NA","undefined","469","432","05/05/21 17:03:11","The main experiment item","yes","","4. Transfer.osexp","C:\Users\cncadmin\Desktop\Sara G\New_task","no","mono","no","18","no","black","no","yes","768","legacy","585744","57","57","0","C:/Users/cncadmin/Desktop/Sara G/DatiEEG/02mi4.csv","xpyriment","Kafkaesque Koffka","3.2.8","NA","0","0","0","4","0","1","NA","1","16405","NA","16405","2","legacy","1024","2","48000","-16","experiment","2","even","NA","NA","NA","NA","NA","NA","589609","1957","18393","NA","NA","NA","1957","NA","579669","1958","NA","NA","1987","589609","NA","NA","NA","NA","NA","NA","NA","NA","1957","NA","NA","NA","588709","NA","NA","NA","NA","NA","NA","NA","588711","NA","588709","18399","18394","18399","NA","pit experiment","0","0","0","44","yes","1024"
PIT R1 658.0
PIT R1 611
PIT R1 685
PIT R1 606
"CS-","0","501","0","0","0","Transfer","0","undefined","undefined","undefined","undefined","white","xpyriment","legacy","legacy","0","uniform","undefined","NA","undefined","NA","NA","NA","NA","NA","NA","60","0","0","0","NA","NA","0","0","58","0","0","NA","0","58","NA","NA","NA","NA","NA","NA","NA","NA","0","NA","NA","NA","58","58","58","58","58","58","58","58","58","NA","58","2","0","0","NA","undefined","469","432","05/05/21 17:03:11","The main experiment item","yes","","4. Transfer.osexp","C:\Users\cncadmin\Desktop\Sara G\New_task","no","mono","no","18","no","black","no","yes","768","legacy","595746","58","58","0","C:/Users/cncadmin/Desktop/Sara G/DatiEEG/02mi4.csv","xpyriment","Kafkaesque Koffka","3.2.8","NA","0","4","0","0","0","1","NA","1","16405","NA","16405","2","legacy","1024","2","48000","-16","experiment","2","even","NA","NA","NA","NA","NA","NA","599285","1957","18393","NA","NA","NA","1957","NA","589658","1958","NA","NA","1987","599285","NA","NA","NA","NA","NA","NA","NA","NA","1957","NA","NA","NA","598782","NA","NA","NA","NA","NA","NA","NA","598784","NA","598782","18399","18394","18399","NA","pit experiment","0","0","0","44","yes","1024"
PIT R1 763.0
PIT R1 638
PIT R1 630
PIT R1 624
"CS2","0","508","0","0","0","Transfer","0","undefined","undefined","undefined","undefined","white","xpyriment","legacy","legacy","0","uniform","undefined","NA","undefined","NA","NA","NA","NA","NA","NA","61","0","0","0","NA","NA","0","0","59","0","0","NA","0","59","NA","NA","NA","NA","NA","NA","NA","NA","0","NA","NA","NA","59","59","59","59","59","59","59","59","59","NA","59","2","0","0","NA","undefined","469","432","05/05/21 17:03:11","The main experiment item","yes","","4. Transfer.osexp","C:\Users\cncadmin\Desktop\Sara G\New_task","no","mono","no","18","no","black","no","yes","768","legacy","605560","59","59","0","C:/Users/cncadmin/Desktop/Sara G/DatiEEG/02mi4.csv","xpyriment","Kafkaesque Koffka","3.2.8","NA","0","4","0","0","0","1","NA","1","16405","NA","16405","2","legacy","1024","2","48000","-16","experiment","2","even","NA","NA","NA","NA","NA","NA","609030","1957","18393","NA","NA","NA","1957","NA","599378","1958","NA","NA","1987","609030","NA","NA","NA","NA","NA","NA","NA","NA","1957","NA","NA","NA","608520","NA","NA","NA","NA","NA","NA","NA","608522","NA","608520","18399","18394","18399","NA","pit experiment","0","0","0","22","yes","1024"
PIT R2 739.0
PIT R2 752
PIT R2 638
PIT R2 591
"CS-","0","661","0","0","0","Transfer","0","undefined","undefined","undefined","undefined","white","xpyriment","legacy","legacy","0","uniform","undefined","NA","undefined","NA","NA","NA","NA","NA","NA","62","0","0","0","NA","NA","0","0","60","0","0","NA","0","60","NA","NA","NA","NA","NA","NA","NA","NA","0","NA","NA","NA","60","60","60","60","60","60","60","60","60","NA","60","2","0","0","NA","undefined","469","432","05/05/21 17:03:11","The main experiment item","yes","","4. Transfer.osexp","C:\Users\cncadmin\Desktop\Sara G\New_task","no","mono","no","18","no","black","no","yes","768","legacy","615305","0","0","0","C:/Users/cncadmin/Desktop/Sara G/DatiEEG/02mi4.csv","xpyriment","Kafkaesque Koffka","3.2.8","NA","0","0","0","4","0","1","NA","1","16405","NA","16405","2","legacy","1024","2","48000","-16","experiment","2","even","NA","NA","NA","NA","NA","NA","619068","1957","18393","NA","NA","NA","1957","NA","609063","1958","NA","NA","1987","619068","NA","NA","NA","NA","NA","NA","NA","NA","1957","NA","NA","NA","618405","NA","NA","NA","NA","NA","NA","NA","618407","NA","618405","615951","18394","18399","NA","pit experiment","0","0","0","44","yes","1024"
PIT R1 739.0
PIT R1 984
PIT R1 612
PIT R1 620
"CS-","0","739","0","0","0","Transfer","0","undefined","undefined","undefined","undefined","white","xpyriment","legacy","legacy","0","uniform","undefined","NA","undefined","NA","NA","NA","NA","NA","NA","63","0","0","0","NA","NA","0","0","61","0","0","NA","0","61","NA","NA","NA","NA","NA","NA","NA","NA","0","NA","NA","NA","61","61","61","61","61","61","61","61","61","NA","61","2","0","0","NA","undefined","469","432","05/05/21 17:03:11","The main experiment item","yes","","4. Transfer.osexp","C:\Users\cncadmin\Desktop\Sara G\New_task","no","mono","no","18","no","black","no","yes","768","legacy","625587","1","1","0","C:/Users/cncadmin/Desktop/Sara G/DatiEEG/02mi4.csv","xpyriment","Kafkaesque Koffka","3.2.8","NA","0","4","0","0","0","1","NA","1","16405","NA","16405","2","legacy","1024","2","48000","-16","experiment","2","even","NA","NA","NA","NA","NA","NA","629263","1957","18393","NA","NA","NA","1957","NA","619103","1958","NA","NA","1987","629263","NA","NA","NA","NA","NA","NA","NA","NA","1957","NA","NA","NA","628522","NA","NA","NA","NA","NA","NA","NA","628524","NA","628522","615951","18394","18399","NA","pit experiment","0","0","0","44","yes","1024"
PIT R1 761.0
PIT R1 623
PIT R1 612
PIT R1 600
"CS-","0","915","0","0","0","Transfer","0","undefined","undefined","undefined","undefined","white","xpyriment","legacy","legacy","0","uniform","undefined","NA","undefined","NA","NA","NA","NA","NA","NA","64","0","0","0","NA","NA","0","0","62","0","0","NA","0","62","NA","NA","NA","NA","NA","NA","NA","NA","0","NA","NA","NA","62","62","62","62","62","62","62","62","62","NA","62","2","0","0","NA","undefined","469","432","05/05/21 17:03:11","The main experiment item","yes","","4. Transfer.osexp","C:\Users\cncadmin\Desktop\Sara G\New_task","no","mono","no","18","no","black","no","yes","768","legacy","635439","2","2","0","C:/Users/cncadmin/Desktop/Sara G/DatiEEG/02mi4.csv","xpyriment","Kafkaesque Koffka","3.2.8","NA","0","4","0","0","0","1","NA","1","16405","NA","16405","2","legacy","1024","2","48000","-16","experiment","2","even","NA","NA","NA","NA","NA","NA","639372","1957","18393","NA","NA","NA","1957","NA","629314","1958","NA","NA","1987","639372","NA","NA","NA","NA","NA","NA","NA","NA","1957","NA","NA","NA","638454","NA","NA","NA","NA","NA","NA","NA","638456","NA","638454","615951","18394","18399","NA","pit experiment","0","0","0","44","yes","1024"
PIT R2 765.0
PIT R2 832
PIT R2 600
PIT R1 648
"CS2","0","656","0","0","0","Transfer","0","undefined","undefined","undefined","undefined","white","xpyriment","legacy","legacy","0","uniform","undefined","NA","undefined","NA","NA","NA","NA","NA","NA","65","0","0","0","NA","NA","0","0","63","0","0","NA","0","63","NA","NA","NA","NA","NA","NA","NA","NA","0","NA","NA","NA","63","63","63","63","63","63","63","63","63","NA","63","2","0","0","NA","undefined","469","432","05/05/21 17:03:11","The main experiment item","yes","","4. Transfer.osexp","C:\Users\cncadmin\Desktop\Sara G\New_task","no","mono","no","18","no","black","no","yes","768","legacy","645803","3","3","0","C:/Users/cncadmin/Desktop/Sara G/DatiEEG/02mi4.csv","xpyriment","Kafkaesque Koffka","3.2.8","NA","0","1","0","3","0","1","NA","1","16405","NA","16405","2","legacy","1024","2","48000","-16","experiment","2","even","NA","NA","NA","NA","NA","NA","649441","1957","18393","NA","NA","NA","1957","NA","639415","1958","NA","NA","1987","649441","NA","NA","NA","NA","NA","NA","NA","NA","1957","NA","NA","NA","648783","NA","NA","NA","NA","NA","NA","NA","648785","NA","648783","615951","18394","18399","NA","pit experiment","0","0","0","22","yes","1024"
PIT R2 1259.0
PIT R2 627
PIT R2 625
"CS3","0","674","0","0","0","Transfer","0","undefined","undefined","undefined","undefined","white","xpyriment","legacy","legacy","0","uniform","undefined","NA","undefined","NA","NA","NA","NA","NA","NA","66","0","0","0","NA","NA","0","0","64","0","0","NA","0","64","NA","NA","NA","NA","NA","NA","NA","NA","0","NA","NA","NA","64","64","64","64","64","64","64","64","64","NA","64","2","0","0","NA","undefined","469","432","05/05/21 17:03:11","The main experiment item","yes","","4. Transfer.osexp","C:\Users\cncadmin\Desktop\Sara G\New_task","no","mono","no","18","no","black","no","yes","768","legacy","655512","4","4","0","C:/Users/cncadmin/Desktop/Sara G/DatiEEG/02mi4.csv","xpyriment","Kafkaesque Koffka","3.2.8","NA","0","0","0","3","0","1","NA","1","16405","NA","16405","2","legacy","1024","2","48000","-16","experiment","2","even","NA","NA","NA","NA","NA","NA","659133","1957","18393","NA","NA","NA","1957","NA","649480","1958","NA","NA","1987","659133","NA","NA","NA","NA","NA","NA","NA","NA","1957","NA","NA","NA","658457","NA","NA","NA","NA","NA","NA","NA","658458","NA","658456","615951","18394","18399","NA","pit experiment","0","0","0","33","yes","1024"
PIT R2 2847.0
"CS1","0","917","0","0","0","Transfer","0","undefined","undefined","undefined","undefined","white","xpyriment","legacy","legacy","0","uniform","undefined","NA","undefined","NA","NA","NA","NA","NA","NA","67","0","0","0","NA","NA","0","0","65","0","0","NA","0","65","NA","NA","NA","NA","NA","NA","NA","NA","0","NA","NA","NA","65","65","65","65","65","65","65","65","65","NA","65","2","0","0","NA","undefined","469","432","05/05/21 17:03:11","The main experiment item","yes","","4. Transfer.osexp","C:\Users\cncadmin\Desktop\Sara G\New_task","no","mono","no","18","no","black","no","yes","768","legacy","665564","5","5","0","C:/Users/cncadmin/Desktop/Sara G/DatiEEG/02mi4.csv","xpyriment","Kafkaesque Koffka","3.2.8","NA","0","0","0","1","0","1","NA","1","16405","NA","16405","2","legacy","1024","2","48000","-16","experiment","2","even","NA","NA","NA","NA","NA","NA","669419","1957","18393","NA","NA","NA","1957","NA","659178","1958","NA","NA","1987","669419","NA","NA","NA","NA","NA","NA","NA","NA","1957","NA","NA","NA","668500","NA","NA","NA","NA","NA","NA","NA","668502","NA","668500","615951","18394","18399","NA","pit experiment","0","0","0","11","yes","1024"
PIT R1 308.0
PIT R1 757
PIT R1 1251
"CS-","0","876","0","0","0","Transfer","0","undefined","undefined","undefined","undefined","white","xpyriment","legacy","legacy","0","uniform","undefined","NA","undefined","NA","NA","NA","NA","NA","NA","68","0","0","0","NA","NA","0","0","66","0","0","NA","0","66","NA","NA","NA","NA","NA","NA","NA","NA","0","NA","NA","NA","66","66","66","66","66","66","66","66","66","NA","66","2","0","0","NA","undefined","469","432","05/05/21 17:03:11","The main experiment item","yes","","4. Transfer.osexp","C:\Users\cncadmin\Desktop\Sara G\New_task","no","mono","no","18","no","black","no","yes","768","legacy","675291","6","6","0","C:/Users/cncadmin/Desktop/Sara G/DatiEEG/02mi4.csv","xpyriment","Kafkaesque Koffka","3.2.8","NA","0","3","0","0","0","1","NA","1","16405","NA","16405","2","legacy","1024","2","48000","-16","experiment","2","even","NA","NA","NA","NA","NA","NA","679285","1957","18393","NA","NA","NA","1957","NA","669451","1958","NA","NA","1987","679285","NA","NA","NA","NA","NA","NA","NA","NA","1957","NA","NA","NA","678407","NA","NA","NA","NA","NA","NA","NA","678409","NA","678407","615951","18394","18399","NA","pit experiment","0","0","0","44","yes","1024"
PIT R1 1130.0
PIT R1 636
PIT R1 684
"CS3","0","615","0","0","0","Transfer","0","undefined","undefined","undefined","undefined","white","xpyriment","legacy","legacy","0","uniform","undefined","NA","undefined","NA","NA","NA","NA","NA","NA","69","0","0","0","NA","NA","0","0","67","0","0","NA","0","67","NA","NA","NA","NA","NA","NA","NA","NA","0","NA","NA","NA","67","67","67","67","67","67","67","67","67","NA","67","2","0","0","NA","undefined","469","432","05/05/21 17:03:11","The main experiment item","yes","","4. Transfer.osexp","C:\Users\cncadmin\Desktop\Sara G\New_task","no","mono","no","18","no","black","no","yes","768","legacy","685548","7","7","0","C:/Users/cncadmin/Desktop/Sara G/DatiEEG/02mi4.csv","xpyriment","Kafkaesque Koffka","3.2.8","NA","0","3","0","0","0","1","NA","1","16405","NA","16405","2","legacy","1024","2","48000","-16","experiment","2","even","NA","NA","NA","NA","NA","NA","689095","1957","18393","NA","NA","NA","1957","NA","679572","1958","NA","NA","1987","689095","NA","NA","NA","NA","NA","NA","NA","NA","1957","NA","NA","NA","688478","NA","NA","NA","NA","NA","NA","NA","688480","NA","688478","615951","18394","18399","NA","pit experiment","0","0","0","33","yes","1024"
PIT R2 761.0
PIT R2 609
PIT R2 679
PIT R2 606
"CS2","0","564","0","0","0","Transfer","0","undefined","undefined","undefined","undefined","white","xpyriment","legacy","legacy","0","uniform","undefined","NA","undefined","NA","NA","NA","NA","NA","NA","70","0","0","0","NA","NA","0","0","68","0","0","NA","0","68","NA","NA","NA","NA","NA","NA","NA","NA","0","NA","NA","NA","68","68","68","68","68","68","68","68","68","NA","68","2","0","0","NA","undefined","469","432","05/05/21 17:03:11","The main experiment item","yes","","4. Transfer.osexp","C:\Users\cncadmin\Desktop\Sara G\New_task","no","mono","no","18","no","black","no","yes","768","legacy","695313","8","8","0","C:/Users/cncadmin/Desktop/Sara G/DatiEEG/02mi4.csv","xpyriment","Kafkaesque Koffka","3.2.8","NA","0","0","0","4","0","1","NA","1","16405","NA","16405","2","legacy","1024","2","48000","-16","experiment","2","even","NA","NA","NA","NA","NA","NA","698894","1957","18393","NA","NA","NA","1957","NA","689131","1958","NA","NA","1987","698894","NA","NA","NA","NA","NA","NA","NA","NA","1957","NA","NA","NA","698327","NA","NA","NA","NA","NA","NA","NA","698330","NA","698327","615951","18394","18399","NA","pit experiment","0","0","0","22","yes","1024"
PIT R2 660.0
PIT R2 626
PIT R2 608
PIT R2 613
"CS1","0","740","0","0","0","Transfer","0","undefined","undefined","undefined","undefined","white","xpyriment","legacy","legacy","0","uniform","undefined","NA","undefined","NA","NA","NA","NA","NA","NA","71","0","0","0","NA","NA","0","0","69","0","0","NA","0","69","NA","NA","NA","NA","NA","NA","NA","NA","0","NA","NA","NA","69","69","69","69","69","69","69","69","69","NA","69","2","0","0","NA","undefined","469","432","05/05/21 17:03:11","The main experiment item","yes","","4. Transfer.osexp","C:\Users\cncadmin\Desktop\Sara G\New_task","no","mono","no","18","no","black","no","yes","768","legacy","704962","9","9","0","C:/Users/cncadmin/Desktop/Sara G/DatiEEG/02mi4.csv","xpyriment","Kafkaesque Koffka","3.2.8","NA","0","0","0","4","0","1","NA","1","16405","NA","16405","2","legacy","1024","2","48000","-16","experiment","2","even","NA","NA","NA","NA","NA","NA","708656","1957","18393","NA","NA","NA","1957","NA","698929","1958","NA","NA","1987","708656","NA","NA","NA","NA","NA","NA","NA","NA","1957","NA","NA","NA","707914","NA","NA","NA","NA","NA","NA","NA","707916","NA","707914","615951","18394","18399","NA","pit experiment","0","0","0","11","yes","1024"
PIT R1 1234.0
PIT R1 641
PIT R1 623
"CS2","0","697","0","0","0","Transfer","0","undefined","undefined","undefined","undefined","white","xpyriment","legacy","legacy","0","uniform","undefined","NA","undefined","NA","NA","NA","NA","NA","NA","72","0","0","0","NA","NA","0","0","70","0","0","NA","0","70","NA","NA","NA","NA","NA","NA","NA","NA","0","NA","NA","NA","70","70","70","70","70","70","70","70","70","NA","70","2","0","0","NA","undefined","469","432","05/05/21 17:03:11","The main experiment item","yes","","4. Transfer.osexp","C:\Users\cncadmin\Desktop\Sara G\New_task","no","mono","no","18","no","black","no","yes","768","legacy","714723","10","10","0","C:/Users/cncadmin/Desktop/Sara G/DatiEEG/02mi4.csv","xpyriment","Kafkaesque Koffka","3.2.8","NA","0","3","0","0","0","1","NA","1","16405","NA","16405","2","legacy","1024","2","48000","-16","experiment","2","even","NA","NA","NA","NA","NA","NA","718406","1957","18393","NA","NA","NA","1957","NA","708690","1958","NA","NA","1987","718406","NA","NA","NA","NA","NA","NA","NA","NA","1957","NA","NA","NA","717706","NA","NA","NA","NA","NA","NA","NA","717708","NA","717706","615951","18394","18399","NA","pit experiment","0","0","0","22","yes","1024"
PIT R2 1065.0
PIT R2 647
PIT R2 617
PIT R2 599
"CS3","0","669","0","0","0","Transfer","0","undefined","undefined","undefined","undefined","white","xpyriment","legacy","legacy","0","uniform","undefined","NA","undefined","NA","NA","NA","NA","NA","NA","73","0","0","0","NA","NA","0","0","71","0","0","NA","0","71","NA","NA","NA","NA","NA","NA","NA","NA","0","NA","NA","NA","71","71","71","71","71","71","71","71","71","NA","71","2","0","0","NA","undefined","469","432","05/05/21 17:03:11","The main experiment item","yes","","4. Transfer.osexp","C:\Users\cncadmin\Desktop\Sara G\New_task","no","mono","no","18","no","black","no","yes","768","legacy","724898","11","11","0","C:/Users/cncadmin/Desktop/Sara G/DatiEEG/02mi4.csv","xpyriment","Kafkaesque Koffka","3.2.8","NA","0","0","0","4","0","1","NA","1","16405","NA","16405","2","legacy","1024","2","48000","-16","experiment","2","even","NA","NA","NA","NA","NA","NA","728538","1957","18393","NA","NA","NA","1957","NA","718447","1958","NA","NA","1987","728538","NA","NA","NA","NA","NA","NA","NA","NA","1957","NA","NA","NA","727867","NA","NA","NA","NA","NA","NA","NA","727868","NA","727867","615951","18394","18399","NA","pit experiment","0","0","0","33","yes","1024"
PIT R2 850.0
PIT R2 628
PIT R2 653
PIT R2 602
"CS1","0","697","0","0","0","Transfer","0","undefined","undefined","undefined","undefined","white","xpyriment","legacy","legacy","0","uniform","undefined","NA","undefined","NA","NA","NA","NA","NA","NA","74","0","0","0","NA","NA","0","0","72","0","0","NA","0","72","NA","NA","NA","NA","NA","NA","NA","NA","0","NA","NA","NA","72","72","72","72","72","72","72","72","72","NA","72","2","0","0","NA","undefined","469","432","05/05/21 17:03:11","The main experiment item","yes","","4. Transfer.osexp","C:\Users\cncadmin\Desktop\Sara G\New_task","no","mono","no","18","no","black","no","yes","768","legacy","734845","12","12","0","C:/Users/cncadmin/Desktop/Sara G/DatiEEG/02mi4.csv","xpyriment","Kafkaesque Koffka","3.2.8","NA","0","0","0","4","0","1","NA","1","16405","NA","16405","2","legacy","1024","2","48000","-16","experiment","2","even","NA","NA","NA","NA","NA","NA","738544","1957","18393","NA","NA","NA","1957","NA","728586","1958","NA","NA","1987","738544","NA","NA","NA","NA","NA","NA","NA","NA","1957","NA","NA","NA","737844","NA","NA","NA","NA","NA","NA","NA","737847","NA","737844","615951","18394","18399","NA","pit experiment","0","0","0","11","yes","1024"
PIT R1 1016.0
PIT R1 632
PIT R1 618
PIT R1 629
"CS1","0","862","0","0","0","Transfer","0","undefined","undefined","undefined","undefined","white","xpyriment","legacy","legacy","0","uniform","undefined","NA","undefined","NA","NA","NA","NA","NA","NA","75","0","0","0","NA","NA","0","0","73","0","0","NA","0","73","NA","NA","NA","NA","NA","NA","NA","NA","0","NA","NA","NA","73","73","73","73","73","73","73","73","73","NA","73","2","0","0","NA","undefined","469","432","05/05/21 17:03:11","The main experiment item","yes","","4. Transfer.osexp","C:\Users\cncadmin\Desktop\Sara G\New_task","no","mono","no","18","no","black","no","yes","768","legacy","745026","13","13","0","C:/Users/cncadmin/Desktop/Sara G/DatiEEG/02mi4.csv","xpyriment","Kafkaesque Koffka","3.2.8","NA","0","4","0","0","0","1","NA","1","16405","NA","16405","2","legacy","1024","2","48000","-16","experiment","2","even","NA","NA","NA","NA","NA","NA","748858","1957","18393","NA","NA","NA","1957","NA","738593","1958","NA","NA","1987","748858","NA","NA","NA","NA","NA","NA","NA","NA","1957","NA","NA","NA","747994","NA","NA","NA","NA","NA","NA","NA","747996","NA","747994","615951","18394","18399","NA","pit experiment","0","0","0","11","yes","1024"
PIT R1 922.0
PIT R1 746
PIT R1 630
PIT R1 605
"CS3","0","811","0","0","0","Transfer","0","undefined","undefined","undefined","undefined","white","xpyriment","legacy","legacy","0","uniform","undefined","NA","undefined","NA","NA","NA","NA","NA","NA","76","0","0","0","NA","NA","0","0","74","0","0","NA","0","74","NA","NA","NA","NA","NA","NA","NA","NA","0","NA","NA","NA","74","74","74","74","74","74","74","74","74","NA","74","2","0","0","NA","undefined","469","432","05/05/21 17:03:11","The main experiment item","yes","","4. Transfer.osexp","C:\Users\cncadmin\Desktop\Sara G\New_task","no","mono","no","18","no","black","no","yes","768","legacy","755352","14","14","0","C:/Users/cncadmin/Desktop/Sara G/DatiEEG/02mi4.csv","xpyriment","Kafkaesque Koffka","3.2.8","NA","0","4","0","0","0","1","NA","1","16405","NA","16405","2","legacy","1024","2","48000","-16","experiment","2","even","NA","NA","NA","NA","NA","NA","759291","1957","18393","NA","NA","NA","1957","NA","748902","1958","NA","NA","1987","759291","NA","NA","NA","NA","NA","NA","NA","NA","1957","NA","NA","NA","758478","NA","NA","NA","NA","NA","NA","NA","758480","NA","758477","615951","18394","18399","NA","pit experiment","0","0","0","33","yes","1024"
PIT R2 954.0
PIT R2 617
PIT R2 585
PIT R2 594
"CS1","0","662","0","0","0","Transfer","0","undefined","undefined","undefined","undefined","white","xpyriment","legacy","legacy","0","uniform","undefined","NA","undefined","NA","NA","NA","NA","NA","NA","77","0","0","0","NA","NA","0","0","75","0","0","NA","0","75","NA","NA","NA","NA","NA","NA","NA","NA","0","NA","NA","NA","75","75","75","75","75","75","75","75","75","NA","75","2","0","0","NA","undefined","469","432","05/05/21 17:03:11","The main experiment item","yes","","4. Transfer.osexp","C:\Users\cncadmin\Desktop\Sara G\New_task","no","mono","no","18","no","black","no","yes","768","legacy","765663","15","15","0","C:/Users/cncadmin/Desktop/Sara G/DatiEEG/02mi4.csv","xpyriment","Kafkaesque Koffka","3.2.8","NA","0","0","0","4","0","1","NA","1","16405","NA","16405","2","legacy","1024","2","48000","-16","experiment","2","even","NA","NA","NA","NA","NA","NA","769293","1957","18393","NA","NA","NA","1957","NA","759396","1958","NA","NA","1987","769293","NA","NA","NA","NA","NA","NA","NA","NA","1957","NA","NA","NA","768629","NA","NA","NA","NA","NA","NA","NA","768631","NA","768629","615951","18394","18399","NA","pit experiment","0","0","0","11","yes","1024"
PIT R1 1254.0
PIT R1 619
PIT R1 583
"CS2","0","812","0","0","0","Transfer","0","undefined","undefined","undefined","undefined","white","xpyriment","legacy","legacy","0","uniform","undefined","NA","undefined","NA","NA","NA","NA","NA","NA","78","0","0","0","NA","NA","0","0","76","0","0","NA","0","76","NA","NA","NA","NA","NA","NA","NA","NA","0","NA","NA","NA","76","76","76","76","76","76","76","76","76","NA","76","2","0","0","NA","undefined","469","432","05/05/21 17:03:11","The main experiment item","yes","","4. Transfer.osexp","C:\Users\cncadmin\Desktop\Sara G\New_task","no","mono","no","18","no","black","no","yes","768","legacy","775333","16","16","0","C:/Users/cncadmin/Desktop/Sara G/DatiEEG/02mi4.csv","xpyriment","Kafkaesque Koffka","3.2.8","NA","0","3","0","0","0","1","NA","1","16405","NA","16405","2","legacy","1024","2","48000","-16","experiment","2","even","NA","NA","NA","NA","NA","NA","779162","1957","18393","NA","NA","NA","1957","NA","769345","1958","NA","NA","1987","779162","NA","NA","NA","NA","NA","NA","NA","NA","1957","NA","NA","NA","778349","NA","NA","NA","NA","NA","NA","NA","778350","NA","778348","615951","18394","18399","NA","pit experiment","0","0","0","22","yes","1024"
PIT R2 1011.0
PIT R2 606
PIT R2 591
PIT R2 615
"CS3","0","717","0","0","0","Transfer","0","undefined","undefined","undefined","undefined","white","xpyriment","legacy","legacy","0","uniform","undefined","NA","undefined","NA","NA","NA","NA","NA","NA","79","0","0","0","NA","NA","0","0","77","0","0","NA","0","77","NA","NA","NA","NA","NA","NA","NA","NA","0","NA","NA","NA","77","77","77","77","77","77","77","77","77","NA","77","2","0","0","NA","undefined","469","432","05/05/21 17:03:11","The main experiment item","yes","","4. Transfer.osexp","C:\Users\cncadmin\Desktop\Sara G\New_task","no","mono","no","18","no","black","no","yes","768","legacy","785574","17","17","0","C:/Users/cncadmin/Desktop/Sara G/DatiEEG/02mi4.csv","xpyriment","Kafkaesque Koffka","3.2.8","NA","0","0","0","4","0","1","NA","1","16405","NA","16405","2","legacy","1024","2","48000","-16","experiment","2","even","NA","NA","NA","NA","NA","NA","789223","1957","18393","NA","NA","NA","1957","NA","779204","1958","NA","NA","1987","789223","NA","NA","NA","NA","NA","NA","NA","NA","1957","NA","NA","NA","788504","NA","NA","NA","NA","NA","NA","NA","788506","NA","788504","615951","18394","18399","NA","pit experiment","0","0","0","33","yes","1024"
PIT R2 1613.0
PIT R2 605
PIT R2 579
"CS3","0","538","0","0","0","Transfer","0","undefined","undefined","undefined","undefined","white","xpyriment","legacy","legacy","0","uniform","undefined","NA","undefined","NA","NA","NA","NA","NA","NA","80","0","0","0","NA","NA","0","0","78","0","0","NA","0","78","NA","NA","NA","NA","NA","NA","NA","NA","0","NA","NA","NA","78","78","78","78","78","78","78","78","78","NA","78","2","0","0","NA","undefined","469","432","05/05/21 17:03:11","The main experiment item","yes","","4. Transfer.osexp","C:\Users\cncadmin\Desktop\Sara G\New_task","no","mono","no","18","no","black","no","yes","768","legacy","795754","18","18","0","C:/Users/cncadmin/Desktop/Sara G/DatiEEG/02mi4.csv","xpyriment","Kafkaesque Koffka","3.2.8","NA","0","0","0","3","0","1","NA","1","16405","NA","16405","2","legacy","1024","2","48000","-16","experiment","2","even","NA","NA","NA","NA","NA","NA","799274","1957","18393","NA","NA","NA","1957","NA","789433","1958","NA","NA","1987","799274","NA","NA","NA","NA","NA","NA","NA","NA","1957","NA","NA","NA","798734","NA","NA","NA","NA","NA","NA","NA","798736","NA","798734","615951","18394","18399","NA","pit experiment","0","0","0","33","yes","1024"
PIT R2 982.0
PIT R2 649
PIT R2 679
