Participant,Trial,EffortLevel,RewardLevel,Preference,Proportion_EffortPreference,Choice,RT
1,1,5,4,0,0.13333,1,0.47251
1,2,2,4,1,0.13333,1,0.63712
1,3,6,5,1,0.13333,1,0.69216
1,4,4,5,1,0.13333,1,0.52938
1,5,4,3,1,0.13333,1,0.6075
1,6,6,6,0,0.13333,1,0.52282
1,7,3,5,1,0.13333,1,0.6569
1,8,4,6,1,0.13333,1,0.68685
1,9,5,4,1,0.13333,1,1.0123
1,10,3,4,1,0.13333,1,0.68474
1,11,5,6,0,0.13333,1,0.46385
1,12,3,4,1,0.13333,0,0.82021
1,13,2,5,1,0.13333,1,0.93086
1,14,4,2,1,0.13333,0,0.6655
1,15,4,2,1,0.13333,1,0.96444
1,16,6,4,0,0.13333,1,0.68915
1,17,4,3,1,0.13333,1,0.73574
1,18,6,2,1,0.13333,0,0.59627
1,19,3,3,1,0.13333,1,0.65764
1,20,2,5,1,0.13333,1,0.56029
1,21,4,4,1,0.13333,1,0.71884
1,22,4,6,1,0.13333,1,0.45313
1,23,5,3,0,0.13333,1,0.6421
1,24,3,2,1,0.13333,1,0.83108
1,25,3,2,1,0.13333,1,1.1585
1,26,6,5,1,0.13333,1,0.60971
1,27,6,4,1,0.13333,1,0.47975
1,28,4,2,1,0.13333,1,0.67491
1,29,5,5,1,0.13333,1,0.5286
1,30,3,2,1,0.13333,1,0.50383
1,31,6,5,1,0.13333,1,0.50723
1,32,5,3,1,0.13333,1,0.61726
1,33,3,5,0,0.13333,1,1.1635
1,34,2,6,1,0.13333,1,0.46527
1,35,4,4,1,0.13333,1,0.97438
1,36,4,5,0,0.13333,1,1.1458
1,37,2,3,0,0.13333,1,0.54167
1,38,3,4,1,0.13333,1,0.67315
1,39,5,5,1,0.13333,1,0.7149
1,40,2,5,1,0.13333,1,1.1598
1,41,2,6,1,0.13333,1,0.67727
1,42,5,2,1,0.13333,1,0.90363
1,43,5,4,1,0.13333,1,1.8286
1,44,2,4,1,0.13333,1,0.76097
1,45,6,6,1,0.13333,1,0.55022
1,46,2,2,1,0.13333,1,0.91218
1,47,6,3,1,0.13333,1,0.86974
1,48,5,6,1,0.13333,1,0.66474
1,49,5,2,1,0.13333,0,0.70803
1,50,4,6,1,0.13333,1,0.79867
1,51,5,3,1,0.13333,1,0.63206
1,52,6,2,1,0.13333,1,1.1955
1,53,2,2,1,0.13333,1,0.55835
1,54,4,4,0,0.13333,1,1.4737
1,55,6,2,1,0.13333,0,0.98792
1,56,5,6,1,0.13333,1,0.68753
1,57,4,5,1,0.13333,1,0.59606
1,58,3,3,0,0.13333,1,0.61372
1,59,3,5,1,0.13333,1,0.60897
1,60,3,6,1,0.13333,1,1.4297
1,61,2,6,1,0.13333,1,1.1106
1,62,6,4,1,0.13333,1,0.48089
1,63,3,3,1,0.13333,1,0.53965
1,64,4,3,1,0.13333,1,0.96647
1,65,3,6,1,0.13333,1,0.68827
1,66,3,6,1,0.13333,1,0.69264
1,67,2,3,1,0.13333,1,0.64099
1,68,6,3,1,0.13333,0,0.71742
1,69,2,2,1,0.13333,1,0.73658
1,70,6,3,1,0.13333,1,0.76319
1,71,5,5,1,0.13333,1,0.77435
1,72,6,6,1,0.13333,1,1.2015
1,73,5,2,1,0.13333,1,0.65029
1,74,2,4,1,0.13333,1,0.99575
1,75,2,3,1,0.13333,1,0.64527
2,1,5,4,1,0.76,1,0.61527
2,2,2,4,1,0.76,1,0.67722
2,3,6,5,1,0.76,1,0.88295
2,4,4,5,1,0.76,1,0.64884
2,5,4,3,1,0.76,1,0.78474
2,6,6,6,1,0.76,1,0.63796
2,7,3,5,1,0.76,1,0.66821
2,8,4,6,1,0.76,1,0.57328
2,9,5,4,1,0.76,1,0.72905
2,10,3,4,1,0.76,1,0.76772
2,11,5,6,1,0.76,1,0.91577
2,12,3,4,1,0.76,1,0.67907
2,13,2,5,1,0.76,1,0.73427
2,14,4,2,1,0.76,1,0.70652
2,15,4,2,1,0.76,1,0.53589
2,16,6,4,1,0.76,1,0.84395
2,17,4,3,1,0.76,1,0.70628
2,18,6,2,0,0.76,1,1.0708
2,19,3,3,0,0.76,1,0.8914
2,20,2,5,0,0.76,1,0.70477
2,21,4,4,0,0.76,1,0.70086
2,22,4,6,0,0.76,1,0.65152
2,23,5,3,1,0.76,1,0.68845
2,24,3,2,0,0.76,1,0.72632
2,25,3,2,0,0.76,1,0.65917
2,26,6,5,0,0.76,1,0.70424
2,27,6,4,0,0.76,1,0.73229
2,28,4,2,0,0.76,1,0.69494
2,29,5,5,0,0.76,1,0.4996
2,30,3,2,0,0.76,1,0.72782
2,31,6,5,0,0.76,1,0.4269
2,32,5,3,0,0.76,1,0.58274
2,33,3,5,0,0.76,1,0.80946
2,34,2,6,0,0.76,1,0.63787
2,35,4,4,0,0.76,1,0.93505
2,36,4,5,0,0.76,1,0.78505
2,37,2,3,0,0.76,1,0.69148
2,38,3,4,0,0.76,1,0.60583
2,39,5,5,0,0.76,1,0.55405
2,40,2,5,0,0.76,1,0.78152
2,41,2,6,0,0.76,1,0.82553
2,42,5,2,0,0.76,1,0.59626
2,43,5,4,0,0.76,1,0.8042
2,44,2,4,0,0.76,1,0.8092
2,45,6,6,0,0.76,1,0.72421
2,46,2,2,0,0.76,1,0.8555
2,47,6,3,0,0.76,1,0.71462
2,48,5,6,0,0.76,1,0.53166
2,49,5,2,0,0.76,1,0.58097
2,50,4,6,0,0.76,1,0.66191
2,51,5,3,0,0.76,1,0.59132
2,52,6,2,0,0.76,1,0.7548
2,53,2,2,0,0.76,1,0.56492
2,54,4,4,0,0.76,1,0.67115
2,55,6,2,0,0.76,1,0.58375
2,56,5,6,0,0.76,1,0.54566
2,57,4,5,0,0.76,1,0.70852
2,58,3,3,0,0.76,1,0.54941
2,59,3,5,0,0.76,1,0.57547
2,60,3,6,0,0.76,1,0.93061
2,61,2,6,0,0.76,1,0.78032
2,62,6,4,0,0.76,1,0.57253
2,63,3,3,0,0.76,1,0.59072
2,64,4,3,0,0.76,1,0.93583
2,65,3,6,0,0.76,1,0.52354
2,66,3,6,0,0.76,1,0.56676
2,67,2,3,0,0.76,1,0.53686
2,68,6,3,0,0.76,1,0.8273
2,69,2,2,0,0.76,1,0.69218
2,70,6,3,0,0.76,1,0.80558
2,71,5,5,0,0.76,1,0.66369
2,72,6,6,0,0.76,1,0.60799
2,73,5,2,0,0.76,1,0.72784
2,74,2,4,0,0.76,1,0.72941
2,75,2,3,0,0.76,1,0.75537
3,1,5,4,1,0.30667,1,0.44231
3,2,2,4,1,0.30667,1,0.69118
3,3,6,5,0,0.30667,1,0.5494
3,4,4,5,1,0.30667,1,0.57991
3,5,4,3,0,0.30667,1,0.79077
3,6,6,6,1,0.30667,1,0.47742
3,7,3,5,1,0.30667,1,0.4981
3,8,4,6,1,0.30667,1,0.47737
3,9,5,4,1,0.30667,1,0.56889
3,10,3,4,1,0.30667,1,0.5155
3,11,5,6,1,0.30667,1,0.60584
3,12,3,4,1,0.30667,1,0.52632
3,13,2,5,1,0.30667,1,0.58502
3,14,4,2,1,0.30667,0,0.57168
3,15,4,2,1,0.30667,0,0.59187
3,16,6,4,1,0.30667,1,0.514
3,17,4,3,1,0.30667,1,0.6918
3,18,6,2,1,0.30667,0,0.63788
3,19,3,3,1,0.30667,1,0.51156
3,20,2,5,1,0.30667,1,0.62749
3,21,4,4,1,0.30667,1,0.52479
3,22,4,6,1,0.30667,1,0.49405
3,23,5,3,0,0.30667,1,1.1255
3,24,3,2,1,0.30667,1,0.56971
3,25,3,2,1,0.30667,1,0.51875
3,26,6,5,1,0.30667,1,0.53795
3,27,6,4,1,0.30667,1,0.46725
3,28,4,2,1,0.30667,2,NaN
3,29,5,5,0,0.30667,1,0.54212
3,30,3,2,1,0.30667,1,0.43863
3,31,6,5,1,0.30667,1,0.37572
3,32,5,3,1,0.30667,1,0.96985
3,33,3,5,0,0.30667,1,0.60025
3,34,2,6,0,0.30667,1,0.54533
3,35,4,4,1,0.30667,1,0.54838
3,36,4,5,1,0.30667,1,0.59468
3,37,2,3,0,0.30667,1,0.56302
3,38,3,4,1,0.30667,1,0.62281
3,39,5,5,1,0.30667,1,0.53444
3,40,2,5,1,0.30667,1,0.51225
3,41,2,6,1,0.30667,1,0.46771
3,42,5,2,0,0.30667,0,0.36084
3,43,5,4,1,0.30667,1,0.6254
3,44,2,4,1,0.30667,1,1.0842
3,45,6,6,0,0.30667,1,0.73241
3,46,2,2,1,0.30667,0,0.58197
3,47,6,3,1,0.30667,0,0.58853
3,48,5,6,0,0.30667,1,0.55749
3,49,5,2,0,0.30667,1,1.5303
3,50,4,6,0,0.30667,1,0.40988
3,51,5,3,1,0.30667,1,1.1477
3,52,6,2,1,0.30667,0,0.67733
3,53,2,2,1,0.30667,1,1.0767
3,54,4,4,1,0.30667,1,0.7803
3,55,6,2,0,0.30667,0,1.5371
3,56,5,6,1,0.30667,1,0.92428
3,57,4,5,1,0.30667,0,0.48351
3,58,3,3,0,0.30667,1,0.57599
3,59,3,5,0,0.30667,1,1.2648
3,60,3,6,0,0.30667,1,0.60123
3,61,2,6,0,0.30667,1,0.84959
3,62,6,4,1,0.30667,1,0.59115
3,63,3,3,0,0.30667,1,0.70111
3,64,4,3,1,0.30667,1,0.42027
3,65,3,6,1,0.30667,1,0.42198
3,66,3,6,0,0.30667,1,0.58003
3,67,2,3,0,0.30667,0,0.66674
3,68,6,3,1,0.30667,0,1.0106
3,69,2,2,1,0.30667,1,0.5311
3,70,6,3,1,0.30667,0,0.72324
3,71,5,5,1,0.30667,0,0.7134
3,72,6,6,1,0.30667,1,0.70353
3,73,5,2,0,0.30667,0,0.57397
3,74,2,4,0,0.30667,1,0.68346
3,75,2,3,0,0.30667,1,0.55472
4,1,5,4,1,0.69333,1,1.1309
4,2,2,4,0,0.69333,1,0.64668
4,3,6,5,0,0.69333,1,0.7788
4,4,4,5,0,0.69333,1,0.59154
4,5,4,3,0,0.69333,1,0.56697
4,6,6,6,1,0.69333,1,0.9795
4,7,3,5,0,0.69333,1,0.90621
4,8,4,6,1,0.69333,1,0.57698
4,9,5,4,1,0.69333,1,0.9579
4,10,3,4,0,0.69333,1,0.59576
4,11,5,6,0,0.69333,1,0.82486
4,12,3,4,0,0.69333,1,0.77328
4,13,2,5,1,0.69333,1,0.59554
4,14,4,2,0,0.69333,1,0.5012
4,15,4,2,0,0.69333,1,0.56979
4,16,6,4,0,0.69333,1,0.51089
4,17,4,3,1,0.69333,1,0.70131
4,18,6,2,1,0.69333,1,0.70581
4,19,3,3,0,0.69333,1,0.70978
4,20,2,5,1,0.69333,1,0.53225
4,21,4,4,0,0.69333,1,0.79301
4,22,4,6,1,0.69333,1,0.5099
4,23,5,3,0,0.69333,1,0.61039
4,24,3,2,0,0.69333,1,0.57518
4,25,3,2,1,0.69333,1,0.51094
4,26,6,5,0,0.69333,1,0.89087
4,27,6,4,1,0.69333,1,0.72767
4,28,4,2,0,0.69333,1,0.64359
4,29,5,5,1,0.69333,1,0.6882
4,30,3,2,1,0.69333,1,0.5906
4,31,6,5,1,0.69333,1,0.76348
4,32,5,3,1,0.69333,1,0.92013
4,33,3,5,0,0.69333,1,0.50899
4,34,2,6,0,0.69333,1,0.63267
4,35,4,4,1,0.69333,1,0.70012
4,36,4,5,0,0.69333,1,0.63746
4,37,2,3,0,0.69333,1,0.53092
4,38,3,4,0,0.69333,1,0.54072
4,39,5,5,0,0.69333,1,0.76896
4,40,2,5,1,0.69333,1,0.78189
4,41,2,6,1,0.69333,1,0.81118
4,42,5,2,1,0.69333,0,1.1975
4,43,5,4,0,0.69333,1,0.48791
4,44,2,4,0,0.69333,1,0.69194
4,45,6,6,0,0.69333,1,0.7366
4,46,2,2,0,0.69333,1,0.46598
4,47,6,3,0,0.69333,1,0.73342
4,48,5,6,0,0.69333,1,0.91176
4,49,5,2,0,0.69333,1,0.82574
4,50,4,6,1,0.69333,1,0.70921
4,51,5,3,0,0.69333,1,0.48808
4,52,6,2,0,0.69333,0,0.84394
4,53,2,2,0,0.69333,1,0.52661
4,54,4,4,0,0.69333,1,0.6012
4,55,6,2,0,0.69333,0,1.091
4,56,5,6,0,0.69333,1,0.70922
4,57,4,5,0,0.69333,1,0.75322
4,58,3,3,0,0.69333,1,0.492
4,59,3,5,0,0.69333,1,0.58251
4,60,3,6,0,0.69333,1,0.44185
4,61,2,6,0,0.69333,1,0.44412
4,62,6,4,0,0.69333,1,0.50148
4,63,3,3,0,0.69333,1,0.84761
4,64,4,3,1,0.69333,1,0.72871
4,65,3,6,1,0.69333,1,0.58842
4,66,3,6,0,0.69333,1,0.77498
4,67,2,3,0,0.69333,1,0.74585
4,68,6,3,0,0.69333,1,0.69162
4,69,2,2,0,0.69333,1,0.69394
4,70,6,3,0,0.69333,1,0.53547
4,71,5,5,0,0.69333,1,0.47516
4,72,6,6,1,0.69333,1,0.52438
4,73,5,2,0,0.69333,1,0.55822
4,74,2,4,0,0.69333,1,0.90336
4,75,2,3,0,0.69333,1,0.56648
5,1,5,4,1,0.37333,1,0.38612
5,2,2,4,1,0.37333,1,0.32712
5,3,6,5,1,0.37333,1,0.44611
5,4,4,5,0,0.37333,1,0.33219
5,5,4,3,1,0.37333,1,0.80186
5,6,6,6,1,0.37333,1,0.36821
5,7,3,5,1,0.37333,1,0.41594
5,8,4,6,1,0.37333,1,0.34944
5,9,5,4,1,0.37333,1,0.67453
5,10,3,4,0,0.37333,1,0.33693
5,11,5,6,1,0.37333,1,0.46245
5,12,3,4,1,0.37333,1,0.38052
5,13,2,5,1,0.37333,1,0.37867
5,14,4,2,0,0.37333,1,0.6482
5,15,4,2,1,0.37333,1,0.53225
5,16,6,4,1,0.37333,1,0.46468
5,17,4,3,1,0.37333,1,0.55851
5,18,6,2,1,0.37333,0,1.0675
5,19,3,3,1,0.37333,1,1.0167
5,20,2,5,1,0.37333,1,0.42274
5,21,4,4,1,0.37333,1,0.39535
5,22,4,6,1,0.37333,1,0.36974
5,23,5,3,1,0.37333,1,0.76677
5,24,3,2,1,0.37333,1,0.77238
5,25,3,2,1,0.37333,1,0.57877
5,26,6,5,1,0.37333,1,0.77901
5,27,6,4,1,0.37333,1,0.59358
5,28,4,2,1,0.37333,1,0.87848
5,29,5,5,1,0.37333,1,0.38868
5,30,3,2,1,0.37333,1,0.42601
5,31,6,5,0,0.37333,1,0.41455
5,32,5,3,1,0.37333,1,1.5071
5,33,3,5,1,0.37333,1,0.36058
5,34,2,6,1,0.37333,1,0.3187
5,35,4,4,0,0.37333,1,0.67353
5,36,4,5,1,0.37333,1,0.37456
5,37,2,3,1,0.37333,1,1.3478
5,38,3,4,1,0.37333,1,0.69462
5,39,5,5,1,0.37333,1,0.45137
5,40,2,5,1,0.37333,1,0.44053
5,41,2,6,1,0.37333,1,0.45358
5,42,5,2,0,0.37333,1,0.42361
5,43,5,4,0,0.37333,1,2.219
5,44,2,4,0,0.37333,1,0.34942
5,45,6,6,1,0.37333,1,0.4499
5,46,2,2,1,0.37333,1,0.41347
5,47,6,3,1,0.37333,1,0.84897
5,48,5,6,0,0.37333,1,0.30733
5,49,5,2,1,0.37333,1,0.78382
5,50,4,6,0,0.37333,1,0.34554
5,51,5,3,1,0.37333,1,0.42117
5,52,6,2,0,0.37333,0,0.7367
5,53,2,2,1,0.37333,1,0.30696
5,54,4,4,0,0.37333,1,0.96557
5,55,6,2,1,0.37333,1,1.0713
5,56,5,6,1,0.37333,1,0.33098
5,57,4,5,0,0.37333,1,0.50074
5,58,3,3,1,0.37333,1,0.65597
5,59,3,5,0,0.37333,1,0.57204
5,60,3,6,0,0.37333,1,0.6399
5,61,2,6,0,0.37333,1,0.54662
5,62,6,4,0,0.37333,1,0.50765
5,63,3,3,0,0.37333,1,0.32545
5,64,4,3,0,0.37333,1,0.4003
5,65,3,6,1,0.37333,1,0.43481
5,66,3,6,0,0.37333,1,0.43062
5,67,2,3,1,0.37333,1,0.43455
5,68,6,3,0,0.37333,1,1.006
5,69,2,2,0,0.37333,1,0.56146
5,70,6,3,0,0.37333,1,0.79389
5,71,5,5,0,0.37333,1,0.73431
5,72,6,6,0,0.37333,1,0.32649
5,73,5,2,0,0.37333,1,0.96103
5,74,2,4,0,0.37333,1,0.40305
5,75,2,3,0,0.37333,1,0.33203
6,1,5,4,1,0.57333,1,1.531
6,2,2,4,0,0.57333,1,0.39852
6,3,6,5,0,0.57333,1,0.53099
6,4,4,5,1,0.57333,1,0.95199
6,5,4,3,0,0.57333,1,0.73444
6,6,6,6,0,0.57333,1,0.89172
6,7,3,5,0,0.57333,1,0.65019
6,8,4,6,0,0.57333,1,0.59096
6,9,5,4,1,0.57333,1,1.2694
6,10,3,4,0,0.57333,1,0.58062
6,11,5,6,0,0.57333,1,0.69488
6,12,3,4,0,0.57333,1,0.6432
6,13,2,5,0,0.57333,1,0.70412
6,14,4,2,1,0.57333,1,1.102
6,15,4,2,1,0.57333,1,0.63662
6,16,6,4,1,0.57333,1,1.1466
6,17,4,3,1,0.57333,1,0.72923
6,18,6,2,0,0.57333,0,0.5231
6,19,3,3,0,0.57333,1,0.37159
6,20,2,5,0,0.57333,1,0.44991
6,21,4,4,1,0.57333,1,0.72777
6,22,4,6,1,0.57333,1,0.48563
6,23,5,3,0,0.57333,0,0.93829
6,24,3,2,0,0.57333,1,0.53575
6,25,3,2,1,0.57333,1,0.82123
6,26,6,5,1,0.57333,1,0.69658
6,27,6,4,0,0.57333,1,0.77307
6,28,4,2,1,0.57333,1,0.60094
6,29,5,5,0,0.57333,0,0.38891
6,30,3,2,1,0.57333,1,0.79498
6,31,6,5,0,0.57333,1,0.60674
6,32,5,3,1,0.57333,1,0.53975
6,33,3,5,0,0.57333,1,0.62426
6,34,2,6,0,0.57333,1,0.43833
6,35,4,4,0,0.57333,1,0.69859
6,36,4,5,0,0.57333,1,0.97172
6,37,2,3,1,0.57333,1,0.81666
6,38,3,4,1,0.57333,1,0.6937
6,39,5,5,1,0.57333,1,0.49113
6,40,2,5,0,0.57333,1,0.78405
6,41,2,6,0,0.57333,1,0.71595
6,42,5,2,0,0.57333,0,0.70232
6,43,5,4,1,0.57333,1,0.73782
6,44,2,4,0,0.57333,1,0.62191
6,45,6,6,0,0.57333,1,0.73737
6,46,2,2,0,0.57333,1,0.69993
6,47,6,3,1,0.57333,0,0.44855
6,48,5,6,1,0.57333,1,0.65896
6,49,5,2,0,0.57333,1,0.35797
6,50,4,6,0,0.57333,1,0.53028
6,51,5,3,1,0.57333,1,0.76931
6,52,6,2,0,0.57333,0,0.77332
6,53,2,2,0,0.57333,1,0.57443
6,54,4,4,0,0.57333,1,0.57609
6,55,6,2,1,0.57333,0,0.74803
6,56,5,6,1,0.57333,1,0.51991
6,57,4,5,1,0.57333,1,0.44444
6,58,3,3,0,0.57333,1,0.65419
6,59,3,5,1,0.57333,1,0.73049
6,60,3,6,0,0.57333,1,1.1252
6,61,2,6,0,0.57333,1,0.69029
6,62,6,4,1,0.57333,1,0.62822
6,63,3,3,0,0.57333,1,0.78364
6,64,4,3,1,0.57333,1,0.74562
6,65,3,6,1,0.57333,1,0.72476
6,66,3,6,0,0.57333,1,0.66374
6,67,2,3,0,0.57333,1,0.47374
6,68,6,3,1,0.57333,0,0.78141
6,69,2,2,0,0.57333,1,0.88289
6,70,6,3,0,0.57333,1,1.017
6,71,5,5,1,0.57333,1,0.61135
6,72,6,6,0,0.57333,1,0.60619
6,73,5,2,1,0.57333,0,0.95929
6,74,2,4,0,0.57333,1,0.84929
6,75,2,3,1,0.57333,1,0.6522
7,1,5,4,1,0,1,0.60365
7,2,2,4,1,0,1,0.48681
7,3,6,5,1,0,1,0.6981
7,4,4,5,1,0,1,0.63907
7,5,4,3,1,0,1,0.6414
7,6,6,6,1,0,1,0.43616
7,7,3,5,1,0,1,0.56663
7,8,4,6,1,0,1,0.52175
7,9,5,4,1,0,1,0.69218
7,10,3,4,1,0,1,0.6791
7,11,5,6,1,0,1,0.72205
7,12,3,4,1,0,1,0.65329
7,13,2,5,1,0,1,0.6076
7,14,4,2,1,0,1,0.62781
7,15,4,2,1,0,1,0.57208
7,16,6,4,1,0,1,0.5212
7,17,4,3,1,0,1,0.39666
7,18,6,2,1,0,1,1.8285
7,19,3,3,1,0,1,0.47121
7,20,2,5,1,0,1,0.54583
7,21,4,4,1,0,1,1.1172
7,22,4,6,1,0,1,0.51725
7,23,5,3,1,0,1,0.73621
7,24,3,2,1,0,1,0.55717
7,25,3,2,1,0,1,0.57267
7,26,6,5,1,0,1,0.73488
7,27,6,4,1,0,1,0.73963
7,28,4,2,1,0,1,0.50718
7,29,5,5,1,0,1,0.55228
7,30,3,2,1,0,1,0.47224
7,31,6,5,1,0,1,0.57858
7,32,5,3,1,0,1,0.55948
7,33,3,5,1,0,1,0.52843
7,34,2,6,1,0,1,0.6913
7,35,4,4,1,0,1,0.44571
7,36,4,5,1,0,1,0.45284
7,37,2,3,1,0,1,0.40738
7,38,3,4,1,0,1,0.98443
7,39,5,5,1,0,1,0.64198
7,40,2,5,1,0,1,0.44756
7,41,2,6,1,0,1,0.45213
7,42,5,2,1,0,1,0.48507
7,43,5,4,1,0,1,0.5221
7,44,2,4,1,0,1,0.59091
7,45,6,6,1,0,1,0.62547
7,46,2,2,1,0,1,0.56779
7,47,6,3,1,0,1,0.49325
7,48,5,6,1,0,1,0.53854
7,49,5,2,1,0,1,0.58881
7,50,4,6,1,0,1,0.60414
7,51,5,3,1,0,1,0.46862
7,52,6,2,1,0,1,0.52637
7,53,2,2,1,0,1,0.48578
7,54,4,4,1,0,1,0.59039
7,55,6,2,1,0,1,0.60771
7,56,5,6,1,0,1,0.5436
7,57,4,5,1,0,1,0.47139
7,58,3,3,1,0,1,0.49123
7,59,3,5,1,0,1,0.50572
7,60,3,6,1,0,1,0.58777
7,61,2,6,1,0,1,0.55046
7,62,6,4,1,0,1,0.53245
7,63,3,3,1,0,1,0.69521
7,64,4,3,1,0,1,0.50015
7,65,3,6,1,0,1,0.45447
7,66,3,6,1,0,1,0.50932
7,67,2,3,1,0,1,0.38209
7,68,6,3,1,0,1,0.55981
7,69,2,2,1,0,1,0.48845
7,70,6,3,1,0,1,0.58215
7,71,5,5,1,0,1,0.52651
7,72,6,6,1,0,1,0.51813
7,73,5,2,1,0,1,0.42988
7,74,2,4,1,0,1,0.71715
7,75,2,3,1,0,1,0.56367
8,1,5,4,1,0.013333,1,1.192
8,2,2,4,1,0.013333,1,0.73236
8,3,6,5,1,0.013333,1,0.88875
8,4,4,5,1,0.013333,1,0.71148
8,5,4,3,1,0.013333,1,0.97361
8,6,6,6,1,0.013333,1,0.69163
8,7,3,5,1,0.013333,1,1.1941
8,8,4,6,1,0.013333,1,0.68041
8,9,5,4,1,0.013333,1,1.4936
8,10,3,4,1,0.013333,1,0.97179
8,11,5,6,1,0.013333,1,0.9459
8,12,3,4,1,0.013333,1,0.94329
8,13,2,5,1,0.013333,1,2.1652
8,14,4,2,1,0.013333,1,1.2523
8,15,4,2,1,0.013333,0,1.6326
8,16,6,4,1,0.013333,1,0.61232
8,17,4,3,1,0.013333,1,0.95436
8,18,6,2,1,0.013333,1,1.1285
8,19,3,3,1,0.013333,1,0.91674
8,20,2,5,1,0.013333,1,0.89148
8,21,4,4,1,0.013333,1,0.90563
8,22,4,6,1,0.013333,1,0.92144
8,23,5,3,1,0.013333,1,1.4893
8,24,3,2,1,0.013333,1,0.98267
8,25,3,2,1,0.013333,1,0.74003
8,26,6,5,1,0.013333,1,0.6604
8,27,6,4,1,0.013333,1,0.57791
8,28,4,2,1,0.013333,1,0.64555
8,29,5,5,1,0.013333,1,0.65216
8,30,3,2,1,0.013333,1,0.66657
8,31,6,5,1,0.013333,1,0.5419
8,32,5,3,1,0.013333,1,0.60309
8,33,3,5,1,0.013333,1,1.0727
8,34,2,6,1,0.013333,1,0.73368
8,35,4,4,1,0.013333,1,0.68757
8,36,4,5,1,0.013333,1,0.8913
8,37,2,3,1,0.013333,1,0.59223
8,38,3,4,1,0.013333,1,0.96519
8,39,5,5,1,0.013333,1,0.74554
8,40,2,5,1,0.013333,1,1.3586
8,41,2,6,1,0.013333,1,0.85996
8,42,5,2,1,0.013333,1,0.64003
8,43,5,4,0,0.013333,1,1.018
8,44,2,4,1,0.013333,1,0.96637
8,45,6,6,1,0.013333,1,0.64238
8,46,2,2,1,0.013333,1,0.72511
8,47,6,3,1,0.013333,1,0.84238
8,48,5,6,1,0.013333,1,0.66159
8,49,5,2,1,0.013333,1,0.51235
8,50,4,6,1,0.013333,1,0.58847
8,51,5,3,1,0.013333,1,0.46369
8,52,6,2,1,0.013333,0,0.59654
8,53,2,2,1,0.013333,1,0.93255
8,54,4,4,1,0.013333,1,0.79851
8,55,6,2,1,0.013333,1,0.66476
8,56,5,6,1,0.013333,1,0.80408
8,57,4,5,1,0.013333,1,0.61639
8,58,3,3,1,0.013333,1,0.57769
8,59,3,5,1,0.013333,1,0.5091
8,60,3,6,1,0.013333,1,0.79361
8,61,2,6,1,0.013333,1,0.82197
8,62,6,4,1,0.013333,1,0.55314
8,63,3,3,1,0.013333,1,0.5171
8,64,4,3,1,0.013333,1,0.64666
8,65,3,6,1,0.013333,1,0.71383
8,66,3,6,1,0.013333,1,0.47809
8,67,2,3,1,0.013333,1,0.65541
8,68,6,3,1,0.013333,1,1.0326
8,69,2,2,1,0.013333,1,1.5712
8,70,6,3,1,0.013333,0,0.82014
8,71,5,5,1,0.013333,1,1.2403
8,72,6,6,1,0.013333,1,0.60977
8,73,5,2,1,0.013333,1,0.88447
8,74,2,4,1,0.013333,1,0.86231
8,75,2,3,1,0.013333,1,0.71991
9,1,5,4,0,1,2,NaN
9,2,2,4,0,1,1,0.79435
9,3,6,5,0,1,1,0.89453
9,4,4,5,0,1,1,0.55487
9,5,4,3,0,1,1,0.63265
9,6,6,6,0,1,1,1.1321
9,7,3,5,0,1,1,0.64159
9,8,4,6,0,1,1,0.6493
9,9,5,4,0,1,1,1.4478
9,10,3,4,0,1,1,0.60107
9,11,5,6,0,1,1,0.52546
9,12,3,4,0,1,1,0.45806
9,13,2,5,0,1,1,0.67133
9,14,4,2,0,1,1,1.6464
9,15,4,2,0,1,0,1.6742
9,16,6,4,0,1,1,1.2904
9,17,4,3,0,1,1,0.62525
9,18,6,2,0,1,0,0.38215
9,19,3,3,0,1,1,0.44186
9,20,2,5,0,1,1,0.75914
9,21,4,4,0,1,1,0.57951
9,22,4,6,0,1,1,0.55998
9,23,5,3,0,1,1,1.3251
9,24,3,2,0,1,1,0.50582
9,25,3,2,0,1,1,0.63963
9,26,6,5,0,1,1,0.92067
9,27,6,4,0,1,1,1.0622
9,28,4,2,0,1,1,1.0508
9,29,5,5,0,1,1,0.85348
9,30,3,2,0,1,1,0.6026
9,31,6,5,0,1,1,0.67796
9,32,5,3,0,1,1,1.641
9,33,3,5,0,1,1,0.71103
9,34,2,6,0,1,1,0.57955
9,35,4,4,0,1,1,0.97291
9,36,4,5,0,1,1,0.59227
9,37,2,3,0,1,1,1.0368
9,38,3,4,0,1,1,0.87236
9,39,5,5,0,1,1,1.0048
9,40,2,5,0,1,1,0.76956
9,41,2,6,0,1,1,0.74287
9,42,5,2,0,1,0,0.56855
9,43,5,4,0,1,1,0.74697
9,44,2,4,0,1,1,0.57376
9,45,6,6,0,1,1,0.72964
9,46,2,2,0,1,1,0.57291
9,47,6,3,0,1,1,1.4891
9,48,5,6,0,1,1,0.71406
9,49,5,2,0,1,0,1.6673
9,50,4,6,0,1,1,0.7187
9,51,5,3,0,1,1,0.58389
9,52,6,2,0,1,0,0.68301
9,53,2,2,0,1,1,0.58771
9,54,4,4,0,1,1,0.70292
9,55,6,2,0,1,0,0.72859
9,56,5,6,0,1,1,1.0105
9,57,4,5,0,1,1,0.71862
9,58,3,3,0,1,1,0.65746
9,59,3,5,0,1,1,0.49297
9,60,3,6,0,1,1,0.77513
9,61,2,6,0,1,1,0.9871
9,62,6,4,0,1,1,0.61186
9,63,3,3,0,1,1,0.8373
9,64,4,3,0,1,1,0.60061
9,65,3,6,0,1,1,0.65143
9,66,3,6,0,1,1,0.55038
9,67,2,3,0,1,1,0.52019
9,68,6,3,0,1,1,0.98549
9,69,2,2,0,1,1,0.8675
9,70,6,3,0,1,1,0.70874
9,71,5,5,0,1,1,0.62355
9,72,6,6,0,1,1,0.8014
9,73,5,2,0,1,1,1.4746
9,74,2,4,0,1,1,0.64417
9,75,2,3,0,1,1,0.71034
10,1,5,4,1,0,1,0.73779
10,2,2,4,1,0,1,0.64749
10,3,6,5,1,0,1,0.78739
10,4,4,5,1,0,1,0.96863
10,5,4,3,1,0,1,0.91067
10,6,6,6,1,0,1,0.78861
10,7,3,5,1,0,1,0.79427
10,8,4,6,1,0,1,0.79946
10,9,5,4,1,0,1,1.4922
10,10,3,4,1,0,1,0.70558
10,11,5,6,1,0,1,0.78271
10,12,3,4,1,0,1,0.85173
10,13,2,5,1,0,1,0.7378
10,14,4,2,1,0,1,1.0141
10,15,4,2,1,0,1,0.97874
10,16,6,4,1,0,1,0.55056
10,17,4,3,1,0,1,0.82018
10,18,6,2,1,0,1,0.82399
10,19,3,3,1,0,1,0.90966
10,20,2,5,1,0,1,1.2742
10,21,4,4,1,0,1,0.93745
10,22,4,6,1,0,1,0.63006
10,23,5,3,1,0,1,1.1541
10,24,3,2,1,0,1,0.6969
10,25,3,2,1,0,1,0.72464
10,26,6,5,1,0,1,0.75386
10,27,6,4,1,0,1,0.74256
10,28,4,2,1,0,1,0.69247
10,29,5,5,1,0,1,0.714
10,30,3,2,1,0,1,0.68503
10,31,6,5,1,0,1,1.2491
10,32,5,3,1,0,1,0.76566
10,33,3,5,1,0,1,0.85639
10,34,2,6,1,0,1,0.77415
10,35,4,4,1,0,1,0.7217
10,36,4,5,1,0,1,0.84476
10,37,2,3,1,0,1,0.6884
10,38,3,4,1,0,1,0.88485
10,39,5,5,1,0,1,0.62432
10,40,2,5,1,0,1,0.87833
10,41,2,6,1,0,1,0.87538
10,42,5,2,1,0,0,1.5106
10,43,5,4,1,0,1,0.88322
10,44,2,4,1,0,1,0.82274
10,45,6,6,1,0,1,1.0189
10,46,2,2,1,0,1,0.70154
10,47,6,3,1,0,1,0.80151
10,48,5,6,1,0,1,1.0932
10,49,5,2,1,0,1,0.79957
10,50,4,6,1,0,1,0.71466
10,51,5,3,1,0,1,0.85811
10,52,6,2,1,0,1,0.79696
10,53,2,2,1,0,1,0.67071
10,54,4,4,1,0,1,0.65887
10,55,6,2,1,0,1,0.85331
10,56,5,6,1,0,1,0.58448
10,57,4,5,1,0,1,0.84414
10,58,3,3,1,0,1,0.64626
10,59,3,5,1,0,1,0.60306
10,60,3,6,1,0,1,0.67028
10,61,2,6,1,0,1,0.76969
10,62,6,4,1,0,1,0.8613
10,63,3,3,1,0,1,0.54392
10,64,4,3,1,0,1,0.57794
10,65,3,6,1,0,1,0.59808
10,66,3,6,1,0,1,0.6831
10,67,2,3,1,0,1,0.56523
10,68,6,3,1,0,1,0.91075
10,69,2,2,1,0,1,0.52969
10,70,6,3,1,0,1,0.86714
10,71,5,5,1,0,1,0.7731
10,72,6,6,1,0,1,0.70289
10,73,5,2,1,0,1,0.94394
10,74,2,4,1,0,1,0.76134
10,75,2,3,1,0,1,0.70694
11,1,5,4,1,0.12,1,0.68525
11,2,2,4,1,0.12,1,0.61953
11,3,6,5,1,0.12,0,0.93778
11,4,4,5,1,0.12,1,0.6255
11,5,4,3,1,0.12,1,1.0792
11,6,6,6,0,0.12,0,0.6689
11,7,3,5,1,0.12,1,0.75746
11,8,4,6,1,0.12,1,0.52399
11,9,5,4,1,0.12,1,0.69748
11,10,3,4,1,0.12,1,0.84118
11,11,5,6,1,0.12,1,0.69526
11,12,3,4,1,0.12,1,0.56494
11,13,2,5,1,0.12,1,0.70805
11,14,4,2,1,0.12,0,0.71822
11,15,4,2,1,0.12,1,1.6496
11,16,6,4,1,0.12,0,0.49456
11,17,4,3,1,0.12,1,0.62026
11,18,6,2,1,0.12,0,0.59423
11,19,3,3,1,0.12,1,0.823
11,20,2,5,0,0.12,1,0.94298
11,21,4,4,1,0.12,1,1.1486
11,22,4,6,1,0.12,1,0.70612
11,23,5,3,1,0.12,0,0.79175
11,24,3,2,1,0.12,0,0.82231
11,25,3,2,1,0.12,1,1.4853
11,26,6,5,1,0.12,0,0.62415
11,27,6,4,1,0.12,0,0.91115
11,28,4,2,1,0.12,1,0.83589
11,29,5,5,1,0.12,1,0.60387
11,30,3,2,1,0.12,1,1.7776
11,31,6,5,1,0.12,0,1.2857
11,32,5,3,1,0.12,1,1.1794
11,33,3,5,0,0.12,1,0.55187
11,34,2,6,1,0.12,1,0.68554
11,35,4,4,1,0.12,1,1.3863
11,36,4,5,1,0.12,1,0.87872
11,37,2,3,1,0.12,1,1.6284
11,38,3,4,1,0.12,1,0.7141
11,39,5,5,1,0.12,1,0.91
11,40,2,5,1,0.12,1,1.2213
11,41,2,6,1,0.12,1,0.97094
11,42,5,2,1,0.12,0,0.76616
11,43,5,4,1,0.12,1,0.58642
11,44,2,4,1,0.12,1,0.95121
11,45,6,6,1,0.12,1,0.97273
11,46,2,2,0,0.12,1,0.97657
11,47,6,3,1,0.12,1,0.6873
11,48,5,6,0,0.12,1,0.68134
11,49,5,2,1,0.12,1,0.74611
11,50,4,6,1,0.12,1,0.57245
11,51,5,3,1,0.12,1,0.57857
11,52,6,2,1,0.12,0,0.57513
11,53,2,2,1,0.12,1,0.93771
11,54,4,4,1,0.12,1,0.68531
11,55,6,2,1,0.12,1,0.76959
11,56,5,6,1,0.12,1,0.74859
11,57,4,5,1,0.12,1,0.80161
11,58,3,3,0,0.12,1,0.70882
11,59,3,5,1,0.12,1,0.52169
11,60,3,6,0,0.12,1,0.62226
11,61,2,6,1,0.12,1,0.65109
11,62,6,4,1,0.12,0,0.99787
11,63,3,3,1,0.12,1,0.90345
11,64,4,3,1,0.12,1,0.69029
11,65,3,6,1,0.12,1,1.2197
11,66,3,6,1,0.12,1,0.63313
11,67,2,3,0,0.12,1,0.65961
11,68,6,3,1,0.12,1,0.77556
11,69,2,2,1,0.12,1,0.82738
11,70,6,3,1,0.12,0,0.65543
11,71,5,5,1,0.12,1,2.3874
11,72,6,6,1,0.12,1,1.4776
11,73,5,2,1,0.12,1,0.85665
11,74,2,4,1,0.12,1,0.80332
11,75,2,3,0,0.12,1,0.50204
12,1,5,4,1,0.36,1,0.51009
12,2,2,4,0,0.36,1,0.76909
12,3,6,5,1,0.36,1,1.171
12,4,4,5,1,0.36,1,0.56695
12,5,4,3,1,0.36,1,0.7941
12,6,6,6,1,0.36,1,0.50207
12,7,3,5,1,0.36,1,0.7059
12,8,4,6,0,0.36,1,0.49817
12,9,5,4,1,0.36,1,0.57592
12,10,3,4,1,0.36,1,0.6589
12,11,5,6,1,0.36,1,0.44608
12,12,3,4,1,0.36,1,0.5684
12,13,2,5,1,0.36,1,0.48749
12,14,4,2,0,0.36,1,0.61653
12,15,4,2,0,0.36,1,0.92966
12,16,6,4,1,0.36,1,0.462
12,17,4,3,0,0.36,1,0.55942
12,18,6,2,1,0.36,0,0.55626
12,19,3,3,1,0.36,1,0.60544
12,20,2,5,0,0.36,1,0.70249
12,21,4,4,1,0.36,1,1.0514
12,22,4,6,1,0.36,1,0.47852
12,23,5,3,1,0.36,1,0.6765
12,24,3,2,1,0.36,1,0.54189
12,25,3,2,1,0.36,1,0.99121
12,26,6,5,0,0.36,1,0.85737
12,27,6,4,0,0.36,0,0.59936
12,28,4,2,1,0.36,1,0.8923
12,29,5,5,0,0.36,1,0.66732
12,30,3,2,0,0.36,1,0.4927
12,31,6,5,1,0.36,1,0.64742
12,32,5,3,0,0.36,1,0.58302
12,33,3,5,1,0.36,1,0.49318
12,34,2,6,0,0.36,1,0.50265
12,35,4,4,1,0.36,2,NaN
12,36,4,5,1,0.36,1,1.1617
12,37,2,3,1,0.36,2,NaN
12,38,3,4,1,0.36,1,0.44447
12,39,5,5,1,0.36,1,0.61779
12,40,2,5,1,0.36,1,0.46834
12,41,2,6,0,0.36,1,1.1332
12,42,5,2,0,0.36,0,0.66112
12,43,5,4,1,0.36,1,0.45508
12,44,2,4,1,0.36,1,0.75306
12,45,6,6,0,0.36,1,0.50765
12,46,2,2,1,0.36,1,0.46797
12,47,6,3,1,0.36,1,0.50291
12,48,5,6,0,0.36,1,0.49227
12,49,5,2,0,0.36,1,0.43602
12,50,4,6,1,0.36,1,0.44776
12,51,5,3,1,0.36,1,0.75977
12,52,6,2,1,0.36,0,0.46702
12,53,2,2,1,0.36,1,0.41071
12,54,4,4,0,0.36,1,0.84248
12,55,6,2,0,0.36,0,0.51458
12,56,5,6,1,0.36,1,0.51815
12,57,4,5,1,0.36,1,0.60913
12,58,3,3,0,0.36,1,0.44145
12,59,3,5,1,0.36,1,0.48448
12,60,3,6,0,0.36,1,0.49016
12,61,2,6,0,0.36,1,0.66703
12,62,6,4,1,0.36,1,0.46083
12,63,3,3,1,0.36,1,0.74863
12,64,4,3,0,0.36,1,0.59574
12,65,3,6,1,0.36,1,0.56677
12,66,3,6,0,0.36,1,0.86977
12,67,2,3,0,0.36,1,0.55317
12,68,6,3,0,0.36,1,1.1746
12,69,2,2,1,0.36,1,0.44351
12,70,6,3,1,0.36,1,1.2199
12,71,5,5,1,0.36,1,0.82004
12,72,6,6,1,0.36,1,0.63686
12,73,5,2,1,0.36,0,0.58213
12,74,2,4,0,0.36,0,1.2096
12,75,2,3,1,0.36,1,0.50208
13,1,5,4,1,0.26667,1,0.75083
13,2,2,4,1,0.26667,1,0.63955
13,3,6,5,0,0.26667,1,1.0459
13,4,4,5,1,0.26667,1,0.43756
13,5,4,3,1,0.26667,0,1.7096
13,6,6,6,1,0.26667,1,0.70179
13,7,3,5,1,0.26667,1,0.39767
13,8,4,6,0,0.26667,1,0.53329
13,9,5,4,1,0.26667,1,1.9794
13,10,3,4,1,0.26667,1,0.42034
13,11,5,6,1,0.26667,1,0.51562
13,12,3,4,1,0.26667,1,0.52086
13,13,2,5,0,0.26667,1,0.46393
13,14,4,2,0,0.26667,0,0.50342
13,15,4,2,0,0.26667,0,0.50237
13,16,6,4,1,0.26667,1,1.5901
13,17,4,3,0,0.26667,1,1.4615
13,18,6,2,1,0.26667,0,0.43749
13,19,3,3,1,0.26667,1,0.49101
13,20,2,5,1,0.26667,1,0.38752
13,21,4,4,1,0.26667,0,2.0201
13,22,4,6,1,0.26667,1,0.47537
13,23,5,3,1,0.26667,0,0.67546
13,24,3,2,1,0.26667,1,0.66836
13,25,3,2,0,0.26667,0,1.2052
13,26,6,5,1,0.26667,1,0.56082
13,27,6,4,1,0.26667,1,0.49779
13,28,4,2,0,0.26667,0,0.43185
13,29,5,5,1,0.26667,1,0.43007
13,30,3,2,1,0.26667,1,0.42849
13,31,6,5,0,0.26667,1,0.38664
13,32,5,3,1,0.26667,1,1.5061
13,33,3,5,0,0.26667,1,0.36033
13,34,2,6,1,0.26667,1,0.46438
13,35,4,4,0,0.26667,1,1.7503
13,36,4,5,0,0.26667,1,0.47452
13,37,2,3,1,0.26667,1,0.35376
13,38,3,4,0,0.26667,1,0.43043
13,39,5,5,1,0.26667,1,0.63649
13,40,2,5,0,0.26667,1,0.5065
13,41,2,6,1,0.26667,1,0.40168
13,42,5,2,1,0.26667,0,0.63113
13,43,5,4,1,0.26667,1,1.1325
13,44,2,4,0,0.26667,1,0.54667
13,45,6,6,1,0.26667,1,1.9517
13,46,2,2,1,0.26667,0,0.73251
13,47,6,3,0,0.26667,0,0.43397
13,48,5,6,1,0.26667,1,0.43062
13,49,5,2,1,0.26667,0,0.39504
13,50,4,6,1,0.26667,1,0.3914
13,51,5,3,1,0.26667,0,0.3547
13,52,6,2,1,0.26667,0,0.47354
13,53,2,2,1,0.26667,1,0.36585
13,54,4,4,0,0.26667,1,0.32096
13,55,6,2,1,0.26667,0,1.1505
13,56,5,6,1,0.26667,1,0.41954
13,57,4,5,1,0.26667,1,0.42483
13,58,3,3,1,0.26667,1,0.65428
13,59,3,5,0,0.26667,1,0.54044
13,60,3,6,1,0.26667,1,0.44359
13,61,2,6,1,0.26667,1,0.39461
13,62,6,4,0,0.26667,0,1.9108
13,63,3,3,1,0.26667,1,0.49964
13,64,4,3,1,0.26667,1,0.81585
13,65,3,6,1,0.26667,1,0.63906
13,66,3,6,1,0.26667,1,0.54083
13,67,2,3,0,0.26667,1,0.44357
13,68,6,3,1,0.26667,0,0.61734
13,69,2,2,1,0.26667,1,0.78421
13,70,6,3,1,0.26667,0,1.3642
13,71,5,5,1,0.26667,1,0.68852
13,72,6,6,1,0.26667,1,0.42999
13,73,5,2,1,0.26667,0,0.57796
13,74,2,4,1,0.26667,1,0.35809
13,75,2,3,1,0.26667,1,0.53089
14,1,5,4,0,1,0,0.72331
14,2,2,4,0,1,1,0.5438
14,3,6,5,0,1,0,0.93243
14,4,4,5,0,1,1,0.56125
14,5,4,3,0,1,1,0.60026
14,6,6,6,0,1,0,0.75646
14,7,3,5,0,1,1,0.84297
14,8,4,6,0,1,1,0.72905
14,9,5,4,0,1,0,0.58982
14,10,3,4,0,1,1,1.0838
14,11,5,6,0,1,0,1.2705
14,12,3,4,0,1,1,0.57969
14,13,2,5,0,1,1,0.48898
14,14,4,2,0,1,0,0.8071
14,15,4,2,0,1,0,0.4112
14,16,6,4,0,1,0,0.43204
14,17,4,3,0,1,1,0.42122
14,18,6,2,0,1,0,0.86643
14,19,3,3,0,1,1,0.57453
14,20,2,5,0,1,1,0.53364
14,21,4,4,0,1,0,0.87456
14,22,4,6,0,1,1,0.46379
14,23,5,3,0,1,0,0.77416
14,24,3,2,0,1,1,0.55531
14,25,3,2,0,1,1,1.29
14,26,6,5,0,1,0,0.69947
14,27,6,4,0,1,0,0.75954
14,28,4,2,0,1,1,0.42748
14,29,5,5,0,1,0,1.0328
14,30,3,2,0,1,1,0.41292
14,31,6,5,0,1,0,0.79869
14,32,5,3,0,1,0,0.76323
14,33,3,5,0,1,1,0.51924
14,34,2,6,0,1,1,1.0369
14,35,4,4,0,1,1,0.5938
14,36,4,5,0,1,1,0.3968
14,37,2,3,0,1,1,0.391
14,38,3,4,0,1,1,0.6502
14,39,5,5,0,1,0,0.54814
14,40,2,5,0,1,1,0.54553
14,41,2,6,0,1,1,0.56224
14,42,5,2,0,1,0,0.41331
14,43,5,4,0,1,0,0.68057
14,44,2,4,0,1,1,0.4457
14,45,6,6,0,1,0,0.58651
14,46,2,2,0,1,1,0.51836
14,47,6,3,0,1,0,0.42611
14,48,5,6,0,1,0,0.86251
14,49,5,2,0,1,0,0.95596
14,50,4,6,0,1,1,0.80849
14,51,5,3,0,1,0,1.0045
14,52,6,2,0,1,0,0.8636
14,53,2,2,0,1,1,0.68881
14,54,4,4,0,1,1,0.49173
14,55,6,2,0,1,0,0.86354
14,56,5,6,0,1,0,0.74572
14,57,4,5,0,1,1,0.55032
14,58,3,3,0,1,1,0.38458
14,59,3,5,0,1,1,0.46128
14,60,3,6,0,1,1,0.52064
14,61,2,6,0,1,1,1.1323
14,62,6,4,0,1,0,0.96753
14,63,3,3,0,1,1,0.89583
14,64,4,3,0,1,1,0.39541
14,65,3,6,0,1,1,0.42255
14,66,3,6,0,1,1,0.48994
14,67,2,3,0,1,1,0.42863
14,68,6,3,0,1,0,0.42392
14,69,2,2,0,1,1,0.44322
14,70,6,3,0,1,0,0.56621
14,71,5,5,0,1,1,1.3846
14,72,6,6,0,1,0,2.0983
14,73,5,2,0,1,0,0.75586
14,74,2,4,0,1,1,0.43765
14,75,2,3,0,1,1,0.40218
15,1,5,4,1,0.24,1,0.68444
15,2,2,4,1,0.24,1,0.41789
15,3,6,5,1,0.24,1,0.63952
15,4,4,5,1,0.24,1,0.4774
15,5,4,3,1,0.24,0,0.67698
15,6,6,6,1,0.24,1,0.50679
15,7,3,5,1,0.24,1,0.52943
15,8,4,6,1,0.24,0,0.35968
15,9,5,4,1,0.24,0,0.57328
15,10,3,4,1,0.24,1,1.0354
15,11,5,6,1,0.24,1,0.55364
15,12,3,4,1,0.24,1,0.74293
15,13,2,5,0,0.24,1,0.7181
15,14,4,2,0,0.24,0,0.55498
15,15,4,2,0,0.24,0,0.43167
15,16,6,4,1,0.24,0,0.55492
15,17,4,3,1,0.24,1,0.92129
15,18,6,2,0,0.24,0,1.3352
15,19,3,3,1,0.24,1,0.61404
15,20,2,5,1,0.24,1,0.81894
15,21,4,4,1,0.24,1,0.60964
15,22,4,6,1,0.24,1,0.43167
15,23,5,3,1,0.24,0,0.62114
15,24,3,2,0,0.24,0,0.939
15,25,3,2,1,0.24,0,0.47241
15,26,6,5,0,0.24,1,0.6363
15,27,6,4,1,0.24,0,0.70623
15,28,4,2,1,0.24,0,0.50372
15,29,5,5,1,0.24,1,0.38983
15,30,3,2,1,0.24,0,0.53977
15,31,6,5,0,0.24,1,0.31334
15,32,5,3,1,0.24,0,0.62111
15,33,3,5,0,0.24,1,0.49936
15,34,2,6,1,0.24,1,0.51967
15,35,4,4,1,0.24,1,0.61324
15,36,4,5,0,0.24,1,0.79152
15,37,2,3,1,0.24,1,0.44709
15,38,3,4,1,0.24,1,0.49782
15,39,5,5,0,0.24,1,0.46158
15,40,2,5,1,0.24,1,0.56321
15,41,2,6,0,0.24,1,0.51259
15,42,5,2,0,0.24,0,0.56327
15,43,5,4,1,0.24,0,0.62324
15,44,2,4,1,0.24,1,0.53277
15,45,6,6,0,0.24,1,0.60141
15,46,2,2,0,0.24,2,NaN
15,47,6,3,1,0.24,0,0.34294
15,48,5,6,1,0.24,1,0.54023
15,49,5,2,1,0.24,0,0.53507
15,50,4,6,1,0.24,1,0.36406
15,51,5,3,1,0.24,0,0.61214
15,52,6,2,0,0.24,0,0.90377
15,53,2,2,1,0.24,1,0.3957
15,54,4,4,1,0.24,1,0.62233
15,55,6,2,1,0.24,0,0.69888
15,56,5,6,1,0.24,1,0.48427
15,57,4,5,1,0.24,1,0.45736
15,58,3,3,1,0.24,1,0.50009
15,59,3,5,1,0.24,1,0.43344
15,60,3,6,0,0.24,1,0.54029
15,61,2,6,1,0.24,1,0.6259
15,62,6,4,1,0.24,0,0.5666
15,63,3,3,0,0.24,1,0.35926
15,64,4,3,1,0.24,0,0.40378
15,65,3,6,1,0.24,1,0.36805
15,66,3,6,1,0.24,1,0.53168
15,67,2,3,1,0.24,1,0.513
15,68,6,3,1,0.24,0,0.94788
15,69,2,2,1,0.24,0,0.47133
15,70,6,3,1,0.24,0,0.60978
15,71,5,5,0,0.24,1,0.71777
15,72,6,6,1,0.24,1,0.40942
15,73,5,2,1,0.24,0,0.39467
15,74,2,4,1,0.24,1,0.79841
15,75,2,3,1,0.24,1,0.43354
16,1,5,4,1,0.4,1,0.73579
16,2,2,4,0,0.4,1,0.41541
16,3,6,5,1,0.4,1,0.80653
16,4,4,5,1,0.4,1,0.82172
16,5,4,3,1,0.4,1,1.9739
16,6,6,6,1,0.4,1,1.013
16,7,3,5,0,0.4,1,1.0111
16,8,4,6,0,0.4,1,1.0355
16,9,5,4,1,0.4,1,0.6981
16,10,3,4,1,0.4,1,0.81569
16,11,5,6,1,0.4,1,1.2616
16,12,3,4,1,0.4,1,0.58092
16,13,2,5,1,0.4,1,1.4918
16,14,4,2,0,0.4,0,1.0687
16,15,4,2,1,0.4,0,0.65143
16,16,6,4,0,0.4,1,0.68145
16,17,4,3,0,0.4,1,0.67232
16,18,6,2,1,0.4,0,0.63097
16,19,3,3,1,0.4,1,0.53259
16,20,2,5,1,0.4,1,1.2847
16,21,4,4,1,0.4,0,0.9875
16,22,4,6,1,0.4,0,1.0439
16,23,5,3,0,0.4,1,1.097
16,24,3,2,0,0.4,0,1.189
16,25,3,2,1,0.4,1,0.69098
16,26,6,5,0,0.4,1,0.77067
16,27,6,4,1,0.4,1,0.77642
16,28,4,2,1,0.4,0,0.79785
16,29,5,5,0,0.4,1,0.85863
16,30,3,2,1,0.4,1,0.913
16,31,6,5,1,0.4,1,0.85554
16,32,5,3,1,0.4,1,0.73285
16,33,3,5,1,0.4,1,0.81143
16,34,2,6,0,0.4,1,1.4512
16,35,4,4,0,0.4,1,1.1847
16,36,4,5,0,0.4,1,0.88502
16,37,2,3,0,0.4,1,0.86737
16,38,3,4,1,0.4,1,1.575
16,39,5,5,1,0.4,1,1.4268
16,40,2,5,0,0.4,1,0.6324
16,41,2,6,1,0.4,1,0.91871
16,42,5,2,1,0.4,0,0.82039
16,43,5,4,1,0.4,1,0.52106
16,44,2,4,0,0.4,1,0.47798
16,45,6,6,0,0.4,1,0.73147
16,46,2,2,0,0.4,0,0.90939
16,47,6,3,1,0.4,1,1.0518
16,48,5,6,0,0.4,1,0.91293
16,49,5,2,0,0.4,0,1.1805
16,50,4,6,1,0.4,1,0.94375
16,51,5,3,1,0.4,1,1.0001
16,52,6,2,0,0.4,0,1.5803
16,53,2,2,1,0.4,1,1.696
16,54,4,4,0,0.4,1,0.57899
16,55,6,2,0,0.4,0,1.6533
16,56,5,6,0,0.4,1,0.95312
16,57,4,5,0,0.4,1,0.79023
16,58,3,3,0,0.4,1,0.64141
16,59,3,5,0,0.4,1,0.66284
16,60,3,6,1,0.4,1,0.64305
16,61,2,6,1,0.4,1,0.59974
16,62,6,4,1,0.4,1,0.70609
16,63,3,3,1,0.4,1,1.2775
16,64,4,3,0,0.4,1,0.71282
16,65,3,6,1,0.4,1,0.66125
16,66,3,6,0,0.4,1,0.66538
16,67,2,3,0,0.4,1,0.80626
16,68,6,3,1,0.4,1,0.95404
16,69,2,2,1,0.4,0,2.3353
16,70,6,3,1,0.4,1,1.2411
16,71,5,5,1,0.4,1,0.65324
16,72,6,6,1,0.4,1,0.6243
16,73,5,2,1,0.4,1,0.85249
16,74,2,4,1,0.4,1,1.3829
16,75,2,3,1,0.4,1,0.88127
17,1,5,4,1,0.37333,1,0.63592
17,2,2,4,1,0.37333,1,0.53892
17,3,6,5,1,0.37333,1,0.66562
17,4,4,5,0,0.37333,1,0.46959
17,5,4,3,1,0.37333,1,0.99685
17,6,6,6,1,0.37333,1,0.74658
17,7,3,5,0,0.37333,1,0.66543
17,8,4,6,1,0.37333,1,0.61294
17,9,5,4,0,0.37333,1,0.77805
17,10,3,4,1,0.37333,1,0.60921
17,11,5,6,1,0.37333,1,0.61593
17,12,3,4,1,0.37333,1,0.85188
17,13,2,5,0,0.37333,1,0.53007
17,14,4,2,1,0.37333,0,0.52724
17,15,4,2,1,0.37333,0,0.65453
17,16,6,4,0,0.37333,1,0.61849
17,17,4,3,1,0.37333,1,0.52997
17,18,6,2,0,0.37333,0,0.6288
17,19,3,3,0,0.37333,1,0.88126
17,20,2,5,1,0.37333,1,0.6955
17,21,4,4,0,0.37333,1,0.70107
17,22,4,6,1,0.37333,1,0.64459
17,23,5,3,0,0.37333,0,0.5939
17,24,3,2,1,0.37333,1,0.5756
17,25,3,2,1,0.37333,0,0.59831
17,26,6,5,1,0.37333,1,0.73573
17,27,6,4,1,0.37333,1,0.64649
17,28,4,2,1,0.37333,0,0.5955
17,29,5,5,1,0.37333,1,0.81771
17,30,3,2,0,0.37333,0,1.0799
17,31,6,5,1,0.37333,1,0.61101
17,32,5,3,0,0.37333,0,1.001
17,33,3,5,1,0.37333,1,0.54351
17,34,2,6,1,0.37333,1,0.60663
17,35,4,4,0,0.37333,1,0.45798
17,36,4,5,1,0.37333,1,0.55047
17,37,2,3,1,0.37333,1,0.54705
17,38,3,4,1,0.37333,1,0.4398
17,39,5,5,0,0.37333,1,0.49195
17,40,2,5,0,0.37333,1,0.44901
17,41,2,6,0,0.37333,1,0.41963
17,42,5,2,0,0.37333,0,0.49477
17,43,5,4,0,0.37333,1,0.45903
17,44,2,4,0,0.37333,1,0.432
17,45,6,6,1,0.37333,1,0.61286
17,46,2,2,1,0.37333,1,0.36816
17,47,6,3,1,0.37333,0,0.53476
17,48,5,6,1,0.37333,1,0.57764
17,49,5,2,1,0.37333,0,0.55003
17,50,4,6,0,0.37333,1,0.6957
17,51,5,3,1,0.37333,0,0.5486
17,52,6,2,1,0.37333,0,0.53094
17,53,2,2,1,0.37333,1,0.56542
17,54,4,4,0,0.37333,1,0.67219
17,55,6,2,1,0.37333,0,0.46705
17,56,5,6,0,0.37333,1,0.4068
17,57,4,5,1,0.37333,1,0.4758
17,58,3,3,1,0.37333,1,0.48855
17,59,3,5,1,0.37333,1,0.50954
17,60,3,6,0,0.37333,1,0.49739
17,61,2,6,0,0.37333,1,0.39607
17,62,6,4,1,0.37333,1,0.63968
17,63,3,3,1,0.37333,1,0.45921
17,64,4,3,0,0.37333,1,0.51852
17,65,3,6,0,0.37333,1,0.63295
17,66,3,6,0,0.37333,1,0.60444
17,67,2,3,0,0.37333,1,1.8395
17,68,6,3,0,0.37333,0,0.61002
17,69,2,2,1,0.37333,1,0.55886
17,70,6,3,1,0.37333,1,0.48326
17,71,5,5,1,0.37333,1,0.55002
17,72,6,6,1,0.37333,1,0.70446
17,73,5,2,1,0.37333,0,0.612
17,74,2,4,1,0.37333,1,0.53581
17,75,2,3,1,0.37333,1,0.38512
18,1,5,4,1,0,0,0.74424
18,2,2,4,1,0,1,0.59714
18,3,6,5,1,0,0,1.0992
18,4,4,5,1,0,1,0.64131
18,5,4,3,1,0,1,0.5032
18,6,6,6,1,0,1,0.66916
18,7,3,5,1,0,0,0.57918
18,8,4,6,1,0,1,0.76146
18,9,5,4,1,0,1,0.76843
18,10,3,4,1,0,1,0.64724
18,11,5,6,1,0,1,0.74825
18,12,3,4,1,0,1,0.68148
18,13,2,5,1,0,1,0.43949
18,14,4,2,1,0,0,1.1343
18,15,4,2,1,0,1,0.46689
18,16,6,4,1,0,0,0.52682
18,17,4,3,1,0,1,0.54344
18,18,6,2,1,0,0,0.53217
18,19,3,3,1,0,1,0.46541
18,20,2,5,1,0,1,0.36791
18,21,4,4,1,0,1,0.60603
18,22,4,6,1,0,1,0.41371
18,23,5,3,1,0,2,NaN
18,24,3,2,1,0,1,0.51449
18,25,3,2,1,0,1,0.47109
18,26,6,5,1,0,0,0.46514
18,27,6,4,1,0,0,0.47195
18,28,4,2,1,0,1,1.1491
18,29,5,5,1,0,1,0.78685
18,30,3,2,1,0,1,0.33455
18,31,6,5,1,0,0,0.70724
18,32,5,3,1,0,1,0.96884
18,33,3,5,1,0,1,0.33662
18,34,2,6,1,0,1,0.37382
18,35,4,4,1,0,1,0.61899
18,36,4,5,1,0,1,0.49614
18,37,2,3,1,0,1,0.41476
18,38,3,4,1,0,1,0.61136
18,39,5,5,1,0,1,0.56225
18,40,2,5,1,0,1,0.35917
18,41,2,6,1,0,1,0.44553
18,42,5,2,1,0,0,0.42611
18,43,5,4,1,0,1,0.87019
18,44,2,4,1,0,1,0.47527
18,45,6,6,1,0,1,0.86575
18,46,2,2,1,0,1,0.87715
18,47,6,3,1,0,0,0.57062
18,48,5,6,1,0,1,0.39171
18,49,5,2,1,0,0,0.43495
18,50,4,6,1,0,1,0.42137
18,51,5,3,1,0,0,0.77415
18,52,6,2,1,0,0,0.36444
18,53,2,2,1,0,1,0.39285
18,54,4,4,1,0,1,0.49329
18,55,6,2,1,0,0,0.38545
18,56,5,6,1,0,1,0.45151
18,57,4,5,1,0,1,0.37778
18,58,3,3,1,0,1,0.7168
18,59,3,5,1,0,1,0.40951
18,60,3,6,1,0,1,0.67816
18,61,2,6,1,0,1,0.40297
18,62,6,4,1,0,0,0.41336
18,63,3,3,1,0,1,0.7923
18,64,4,3,1,0,1,0.37349
18,65,3,6,1,0,1,0.33732
18,66,3,6,1,0,1,0.38339
18,67,2,3,1,0,1,0.49916
18,68,6,3,1,0,0,0.40588
18,69,2,2,1,0,1,0.69138
18,70,6,3,1,0,0,0.48717
18,71,5,5,1,0,1,0.41292
18,72,6,6,1,0,1,0.32515
18,73,5,2,1,0,0,0.45994
18,74,2,4,1,0,1,0.3674
18,75,2,3,1,0,1,0.66559
19,1,5,4,1,0.38667,1,0.43064
19,2,2,4,1,0.38667,1,0.42847
19,3,6,5,1,0.38667,1,0.49209
19,4,4,5,1,0.38667,1,0.61676
19,5,4,3,0,0.38667,1,0.9437
19,6,6,6,1,0.38667,1,0.46239
19,7,3,5,1,0.38667,1,0.50098
19,8,4,6,1,0.38667,1,0.64441
19,9,5,4,0,0.38667,1,0.51519
19,10,3,4,1,0.38667,1,0.44106
19,11,5,6,0,0.38667,1,0.54296
19,12,3,4,0,0.38667,1,0.63693
19,13,2,5,1,0.38667,0,0.65958
19,14,4,2,1,0.38667,1,0.94563
19,15,4,2,0,0.38667,1,0.82297
19,16,6,4,1,0.38667,1,0.62843
19,17,4,3,1,0.38667,1,0.57981
19,18,6,2,1,0.38667,1,0.53725
19,19,3,3,1,0.38667,1,0.53511
19,20,2,5,1,0.38667,1,0.58978
19,21,4,4,1,0.38667,1,0.54863
19,22,4,6,0,0.38667,1,0.49797
19,23,5,3,1,0.38667,1,0.48824
19,24,3,2,1,0.38667,1,0.65508
19,25,3,2,1,0.38667,1,0.74199
19,26,6,5,1,0.38667,1,0.78895
19,27,6,4,0,0.38667,1,0.69807
19,28,4,2,1,0.38667,1,0.63707
19,29,5,5,1,0.38667,1,0.4993
19,30,3,2,0,0.38667,1,0.40084
19,31,6,5,0,0.38667,1,0.51025
19,32,5,3,1,0.38667,1,0.6118
19,33,3,5,1,0.38667,1,0.58595
19,34,2,6,0,0.38667,1,0.53719
19,35,4,4,0,0.38667,1,0.67743
19,36,4,5,0,0.38667,1,0.96866
19,37,2,3,0,0.38667,1,0.90198
19,38,3,4,0,0.38667,1,0.4177
19,39,5,5,1,0.38667,1,0.61504
19,40,2,5,1,0.38667,1,0.58137
19,41,2,6,0,0.38667,1,0.52067
19,42,5,2,0,0.38667,1,0.61059
19,43,5,4,1,0.38667,1,0.6552
19,44,2,4,1,0.38667,1,0.76544
19,45,6,6,0,0.38667,1,0.40142
19,46,2,2,1,0.38667,1,0.69463
19,47,6,3,1,0.38667,1,0.61112
19,48,5,6,0,0.38667,1,0.59926
19,49,5,2,0,0.38667,1,0.47474
19,50,4,6,1,0.38667,1,0.3827
19,51,5,3,1,0.38667,1,0.37723
19,52,6,2,1,0.38667,1,0.56647
19,53,2,2,0,0.38667,1,0.43377
19,54,4,4,1,0.38667,1,0.68555
19,55,6,2,1,0.38667,1,0.37811
19,56,5,6,0,0.38667,1,0.39789
19,57,4,5,0,0.38667,1,0.39502
19,58,3,3,1,0.38667,1,0.50382
19,59,3,5,1,0.38667,1,0.43599
19,60,3,6,1,0.38667,1,0.61805
19,61,2,6,0,0.38667,1,0.62076
19,62,6,4,1,0.38667,1,0.41728
19,63,3,3,0,0.38667,1,1.2777
19,64,4,3,0,0.38667,1,0.68956
19,65,3,6,1,0.38667,1,0.45354
19,66,3,6,0,0.38667,1,0.4015
19,67,2,3,1,0.38667,1,0.99833
19,68,6,3,0,0.38667,1,0.70491
19,69,2,2,1,0.38667,1,0.65983
19,70,6,3,0,0.38667,1,0.43983
19,71,5,5,1,0.38667,1,0.58061
19,72,6,6,0,0.38667,1,0.51896
19,73,5,2,1,0.38667,1,0.57834
19,74,2,4,1,0.38667,1,0.54372
19,75,2,3,1,0.38667,1,0.61756
20,1,5,4,1,0,1,0.63544
20,2,2,4,1,0,1,0.77891
20,3,6,5,1,0,1,0.81628
20,4,4,5,1,0,1,0.63853
20,5,4,3,1,0,1,0.61462
20,6,6,6,1,0,1,0.49947
20,7,3,5,1,0,1,0.62673
20,8,4,6,1,0,1,0.52071
20,9,5,4,1,0,1,0.67089
20,10,3,4,1,0,1,0.86893
20,11,5,6,1,0,1,0.8106
20,12,3,4,1,0,1,0.63194
20,13,2,5,1,0,1,0.49488
20,14,4,2,1,0,1,0.61427
20,15,4,2,1,0,1,0.75419
20,16,6,4,1,0,1,0.584
20,17,4,3,1,0,1,0.69812
20,18,6,2,1,0,1,0.65439
20,19,3,3,1,0,1,0.41293
20,20,2,5,1,0,1,0.46715
20,21,4,4,1,0,1,1.1696
20,22,4,6,1,0,1,1.0344
20,23,5,3,1,0,1,0.66316
20,24,3,2,1,0,1,0.54919
20,25,3,2,1,0,1,0.58597
20,26,6,5,1,0,1,0.56357
20,27,6,4,1,0,1,0.71312
20,28,4,2,1,0,1,0.61265
20,29,5,5,1,0,1,0.76291
20,30,3,2,1,0,1,0.57517
20,31,6,5,1,0,1,0.52354
20,32,5,3,1,0,1,0.45036
20,33,3,5,1,0,1,0.52823
20,34,2,6,1,0,1,0.73512
20,35,4,4,1,0,1,0.93277
20,36,4,5,1,0,1,0.81615
20,37,2,3,1,0,1,0.51727
20,38,3,4,1,0,1,0.60097
20,39,5,5,1,0,1,0.0047424
20,40,2,5,1,0,1,0.64318
20,41,2,6,1,0,1,0.64228
20,42,5,2,1,0,1,0.58175
20,43,5,4,1,0,1,0.60038
20,44,2,4,1,0,1,0.64674
20,45,6,6,1,0,1,0.65123
20,46,2,2,1,0,1,0.92765
20,47,6,3,1,0,1,0.44353
20,48,5,6,1,0,1,0.56026
20,49,5,2,1,0,1,0.49975
20,50,4,6,1,0,1,0.46373
20,51,5,3,1,0,1,0.65778
20,52,6,2,1,0,1,0.75148
20,53,2,2,1,0,1,0.60322
20,54,4,4,1,0,1,0.61571
20,55,6,2,1,0,1,1.0273
20,56,5,6,1,0,1,0.4707
20,57,4,5,1,0,1,0.48496
20,58,3,3,1,0,1,0.79295
20,59,3,5,1,0,1,0.71126
20,60,3,6,1,0,1,0.69095
20,61,2,6,1,0,1,0.74258
20,62,6,4,1,0,1,0.63475
20,63,3,3,1,0,1,0.5327
20,64,4,3,1,0,1,0.52811
20,65,3,6,1,0,1,0.45984
20,66,3,6,1,0,1,0.4807
20,67,2,3,1,0,1,0.64471
20,68,6,3,1,0,1,0.58484
20,69,2,2,1,0,1,0.54859
20,70,6,3,1,0,1,0.50359
20,71,5,5,1,0,1,0.66806
20,72,6,6,1,0,1,0.8475
20,73,5,2,1,0,1,0.52279
20,74,2,4,1,0,1,0.54837
20,75,2,3,1,0,1,0.51491
21,1,5,4,1,0,1,0.50805
21,2,2,4,1,0,1,0.44143
21,3,6,5,1,0,1,0.59989
21,4,4,5,1,0,1,0.42799
21,5,4,3,1,0,1,0.54762
21,6,6,6,1,0,1,0.50467
21,7,3,5,1,0,1,1.0557
21,8,4,6,1,0,1,0.67792
21,9,5,4,1,0,1,1.0189
21,10,3,4,1,0,1,0.53847
21,11,5,6,1,0,1,0.59286
21,12,3,4,1,0,1,0.53346
21,13,2,5,1,0,1,0.55622
21,14,4,2,1,0,1,0.99427
21,15,4,2,1,0,1,0.43787
21,16,6,4,1,0,1,0.37177
21,17,4,3,1,0,1,0.43538
21,18,6,2,1,0,0,1.6106
21,19,3,3,1,0,1,0.42306
21,20,2,5,1,0,1,0.48595
21,21,4,4,1,0,1,0.50858
21,22,4,6,1,0,1,0.61865
21,23,5,3,1,0,1,0.5285
21,24,3,2,1,0,1,0.51173
21,25,3,2,1,0,1,0.47838
21,26,6,5,1,0,1,0.49385
21,27,6,4,1,0,0,0.45195
21,28,4,2,1,0,1,0.73698
21,29,5,5,1,0,1,0.44846
21,30,3,2,1,0,1,0.35863
21,31,6,5,1,0,1,1.0121
21,32,5,3,1,0,1,0.72263
21,33,3,5,1,0,1,0.44742
21,34,2,6,1,0,1,0.45351
21,35,4,4,1,0,1,0.52221
21,36,4,5,1,0,1,0.47916
21,37,2,3,1,0,1,0.4613
21,38,3,4,1,0,1,0.90603
21,39,5,5,1,0,1,0.43257
21,40,2,5,1,0,1,0.61957
21,41,2,6,1,0,1,0.40977
21,42,5,2,1,0,0,0.9655
21,43,5,4,1,0,1,0.45972
21,44,2,4,1,0,1,0.45633
21,45,6,6,1,0,1,0.75733
21,46,2,2,1,0,1,0.42433
21,47,6,3,1,0,1,0.48643
21,48,5,6,1,0,1,0.67379
21,49,5,2,1,0,0,0.45427
21,50,4,6,1,0,1,0.42652
21,51,5,3,1,0,1,0.53293
21,52,6,2,1,0,0,0.66539
21,53,2,2,1,0,1,0.37426
21,54,4,4,1,0,1,0.89748
21,55,6,2,1,0,0,0.58099
21,56,5,6,1,0,1,0.43175
21,57,4,5,1,0,1,0.49945
21,58,3,3,1,0,1,0.54215
21,59,3,5,1,0,1,0.53092
21,60,3,6,1,0,1,0.48768
21,61,2,6,1,0,1,0.48434
21,62,6,4,1,0,1,0.37602
21,63,3,3,1,0,1,0.77215
21,64,4,3,1,0,1,0.59125
21,65,3,6,1,0,1,0.66835
21,66,3,6,1,0,1,0.87454
21,67,2,3,1,0,1,0.55995
21,68,6,3,1,0,1,0.66735
21,69,2,2,1,0,1,0.52773
21,70,6,3,1,0,1,0.44451
21,71,5,5,1,0,1,0.67294
21,72,6,6,1,0,1,0.37305
21,73,5,2,1,0,1,0.63163
21,74,2,4,1,0,1,0.53906
21,75,2,3,1,0,1,0.42203
22,1,5,4,1,0,1,0.64639
22,2,2,4,1,0,1,0.49138
22,3,6,5,1,0,1,1.0425
22,4,4,5,1,0,1,0.81707
22,5,4,3,1,0,1,0.60021
22,6,6,6,1,0,1,0.42166
22,7,3,5,1,0,1,0.47588
22,8,4,6,1,0,1,0.45028
22,9,5,4,1,0,1,0.57542
22,10,3,4,1,0,1,0.56815
22,11,5,6,1,0,1,0.56472
22,12,3,4,1,0,1,0.52928
22,13,2,5,1,0,1,0.69655
22,14,4,2,1,0,1,0.65532
22,15,4,2,1,0,1,0.49313
22,16,6,4,1,0,1,0.46636
22,17,4,3,1,0,1,0.67393
22,18,6,2,1,0,1,0.49561
22,19,3,3,1,0,1,0.42784
22,20,2,5,1,0,1,0.46686
22,21,4,4,1,0,1,0.4807
22,22,4,6,1,0,1,0.35844
22,23,5,3,1,0,1,0.51711
22,24,3,2,1,0,1,0.57127
22,25,3,2,1,0,1,0.52166
22,26,6,5,1,0,1,0.49452
22,27,6,4,1,0,1,0.41377
22,28,4,2,1,0,1,0.44894
22,29,5,5,1,0,1,0.40745
22,30,3,2,1,0,1,0.3816
22,31,6,5,1,0,1,0.50523
22,32,5,3,1,0,1,0.41526
22,33,3,5,1,0,1,0.54001
22,34,2,6,1,0,1,0.41764
22,35,4,4,1,0,1,0.53392
22,36,4,5,1,0,1,0.40156
22,37,2,3,1,0,1,0.40708
22,38,3,4,1,0,1,0.45962
22,39,5,5,1,0,1,0.43386
22,40,2,5,1,0,1,0.46231
22,41,2,6,1,0,1,0.42883
22,42,5,2,1,0,1,0.44822
22,43,5,4,1,0,1,0.44411
22,44,2,4,1,0,1,0.52212
22,45,6,6,1,0,1,0.57535
22,46,2,2,1,0,1,0.49245
22,47,6,3,1,0,1,0.51382
22,48,5,6,1,0,1,0.80448
22,49,5,2,1,0,1,0.46491
22,50,4,6,1,0,1,0.39595
22,51,5,3,1,0,1,0.41733
22,52,6,2,1,0,1,0.61353
22,53,2,2,1,0,1,0.51423
22,54,4,4,1,0,1,0.4838
22,55,6,2,1,0,1,0.47088
22,56,5,6,1,0,1,0.47537
22,57,4,5,1,0,1,0.43214
22,58,3,3,1,0,1,0.4021
22,59,3,5,1,0,1,0.41517
22,60,3,6,1,0,1,0.50866
22,61,2,6,1,0,1,0.50508
22,62,6,4,1,0,1,0.38942
22,63,3,3,1,0,1,0.40026
22,64,4,3,1,0,1,0.4119
22,65,3,6,1,0,1,0.41732
22,66,3,6,1,0,1,0.4129
22,67,2,3,1,0,1,0.40962
22,68,6,3,1,0,1,0.74175
22,69,2,2,1,0,1,0.515
22,70,6,3,1,0,1,0.45236
22,71,5,5,1,0,1,0.70519
22,72,6,6,1,0,1,0.51557
22,73,5,2,1,0,1,0.42048
22,74,2,4,1,0,1,0.50439
22,75,2,3,1,0,1,0.45836
23,1,5,4,1,0,1,0.53901
23,2,2,4,1,0,1,0.6084
23,3,6,5,1,0,1,0.66309
23,4,4,5,1,0,1,0.61356
23,5,4,3,1,0,1,0.94855
23,6,6,6,1,0,1,0.68254
23,7,3,5,1,0,1,0.70565
23,8,4,6,1,0,1,0.67322
23,9,5,4,1,0,1,0.70315
23,10,3,4,1,0,1,0.7352
23,11,5,6,1,0,1,0.67694
23,12,3,4,1,0,1,0.82767
23,13,2,5,1,0,1,0.66748
23,14,4,2,1,0,0,1.3773
23,15,4,2,1,0,0,0.58273
23,16,6,4,1,0,1,0.68477
23,17,4,3,1,0,1,0.71579
23,18,6,2,1,0,0,0.64819
23,19,3,3,1,0,1,0.50924
23,20,2,5,1,0,1,0.49768
23,21,4,4,1,0,1,0.64879
23,22,4,6,1,0,1,0.62382
23,23,5,3,1,0,1,0.57583
23,24,3,2,1,0,1,0.6807
23,25,3,2,1,0,1,0.80736
23,26,6,5,1,0,1,0.63344
23,27,6,4,1,0,1,0.62203
23,28,4,2,1,0,1,0.57948
23,29,5,5,1,0,1,0.55337
23,30,3,2,1,0,1,0.73598
23,31,6,5,1,0,1,0.51726
23,32,5,3,1,0,1,0.54746
23,33,3,5,1,0,1,0.89828
23,34,2,6,1,0,1,0.60892
23,35,4,4,1,0,1,0.82184
23,36,4,5,1,0,1,0.57058
23,37,2,3,1,0,1,0.58523
23,38,3,4,1,0,1,1.1098
23,39,5,5,1,0,1,0.60473
23,40,2,5,1,0,1,0.66762
23,41,2,6,1,0,1,0.66416
23,42,5,2,1,0,0,1.5391
23,43,5,4,1,0,1,0.44841
23,44,2,4,1,0,1,0.66916
23,45,6,6,1,0,1,1.026
23,46,2,2,1,0,1,0.67101
23,47,6,3,1,0,0,1.2767
23,48,5,6,1,0,1,1.0968
23,49,5,2,1,0,0,0.86918
23,50,4,6,1,0,1,0.61872
23,51,5,3,1,0,1,0.40847
23,52,6,2,1,0,0,0.59104
23,53,2,2,1,0,1,0.75516
23,54,4,4,1,0,1,0.91861
23,55,6,2,1,0,0,0.60398
23,56,5,6,1,0,1,0.4793
23,57,4,5,1,0,1,0.85844
23,58,3,3,1,0,1,0.67971
23,59,3,5,1,0,1,0.63719
23,60,3,6,1,0,1,0.95416
23,61,2,6,1,0,0,0.36628
23,62,6,4,1,0,1,0.59486
23,63,3,3,1,0,1,1.1982
23,64,4,3,1,0,1,0.64058
23,65,3,6,1,0,1,0.69335
23,66,3,6,1,0,1,0.62727
23,67,2,3,1,0,1,0.66392
23,68,6,3,1,0,1,0.65905
23,69,2,2,1,0,1,0.76855
23,70,6,3,1,0,1,0.46865
23,71,5,5,1,0,1,0.68218
23,72,6,6,1,0,1,1.1733
23,73,5,2,1,0,1,0.49798
23,74,2,4,1,0,1,0.66128
23,75,2,3,1,0,1,0.47994
24,1,5,4,0,0.8,1,1.0242
24,2,2,4,0,0.8,1,0.7883
24,3,6,5,1,0.8,1,1.0576
24,4,4,5,0,0.8,1,1.0092
24,5,4,3,0,0.8,1,0.97309
24,6,6,6,1,0.8,1,0.69711
24,7,3,5,1,0.8,1,1.0371
24,8,4,6,0,0.8,1,0.59073
24,9,5,4,0,0.8,1,1.0264
24,10,3,4,1,0.8,1,0.84573
24,11,5,6,1,0.8,1,0.83397
24,12,3,4,0,0.8,1,0.87395
24,13,2,5,0,0.8,1,0.70144
24,14,4,2,0,0.8,0,0.79137
24,15,4,2,0,0.8,1,0.92288
24,16,6,4,1,0.8,1,0.57348
24,17,4,3,0,0.8,1,0.53818
24,18,6,2,1,0.8,1,0.71453
24,19,3,3,0,0.8,1,0.61535
24,20,2,5,0,0.8,1,0.86248
24,21,4,4,0,0.8,0,0.55434
24,22,4,6,0,0.8,1,1.1867
24,23,5,3,0,0.8,1,0.72413
24,24,3,2,1,0.8,1,0.77321
24,25,3,2,0,0.8,1,0.88461
24,26,6,5,0,0.8,1,0.72364
24,27,6,4,1,0.8,1,0.7548
24,28,4,2,0,0.8,1,0.9765
24,29,5,5,0,0.8,1,0.79791
24,30,3,2,0,0.8,1,0.59018
24,31,6,5,1,0.8,1,0.60412
24,32,5,3,0,0.8,1,0.64424
24,33,3,5,1,0.8,1,0.66395
24,34,2,6,0,0.8,1,0.68876
24,35,4,4,0,0.8,1,1.6275
24,36,4,5,0,0.8,1,0.80509
24,37,2,3,0,0.8,1,0.71059
24,38,3,4,1,0.8,1,0.7045
24,39,5,5,1,0.8,1,0.57346
24,40,2,5,0,0.8,1,0.89303
24,41,2,6,0,0.8,1,0.84658
24,42,5,2,0,0.8,1,0.59887
24,43,5,4,0,0.8,1,0.92037
24,44,2,4,0,0.8,1,0.83201
24,45,6,6,0,0.8,1,0.58965
24,46,2,2,0,0.8,1,1.0438
24,47,6,3,0,0.8,1,1.0212
24,48,5,6,0,0.8,1,0.75622
24,49,5,2,0,0.8,1,0.77271
24,50,4,6,1,0.8,1,0.60741
24,51,5,3,0,0.8,1,0.70781
24,52,6,2,0,0.8,1,0.81572
24,53,2,2,0,0.8,1,0.66945
24,54,4,4,0,0.8,1,0.66306
24,55,6,2,1,0.8,1,0.65623
24,56,5,6,0,0.8,1,0.61534
24,57,4,5,0,0.8,1,0.92212
24,58,3,3,0,0.8,1,0.91324
24,59,3,5,0,0.8,1,0.63973
24,60,3,6,0,0.8,1,0.69048
24,61,2,6,0,0.8,1,0.85131
24,62,6,4,0,0.8,1,0.6652
24,63,3,3,0,0.8,1,0.53683
24,64,4,3,0,0.8,1,0.55205
24,65,3,6,0,0.8,1,0.58569
24,66,3,6,0,0.8,1,0.63454
24,67,2,3,0,0.8,1,0.6353
24,68,6,3,0,0.8,0,0.81892
24,69,2,2,0,0.8,1,0.70068
24,70,6,3,0,0.8,1,0.70598
24,71,5,5,0,0.8,1,1.8354
24,72,6,6,0,0.8,1,0.68099
24,73,5,2,0,0.8,0,0.68032
24,74,2,4,0,0.8,1,0.62423
24,75,2,3,0,0.8,1,1.2077
25,1,5,4,0,0.98667,0,1.0469
25,2,2,4,0,0.98667,1,0.45047
25,3,6,5,0,0.98667,1,1.2062
25,4,4,5,0,0.98667,1,0.38734
25,5,4,3,0,0.98667,1,0.41812
25,6,6,6,0,0.98667,1,0.43798
25,7,3,5,0,0.98667,1,0.46852
25,8,4,6,0,0.98667,1,0.36392
25,9,5,4,0,0.98667,0,0.68091
25,10,3,4,0,0.98667,1,0.4371
25,11,5,6,0,0.98667,1,0.45719
25,12,3,4,0,0.98667,1,0.3582
25,13,2,5,0,0.98667,1,0.38058
25,14,4,2,0,0.98667,0,0.37867
25,15,4,2,0,0.98667,0,0.46297
25,16,6,4,0,0.98667,0,0.31568
25,17,4,3,0,0.98667,1,0.36068
25,18,6,2,0,0.98667,0,0.54078
25,19,3,3,0,0.98667,1,0.39915
25,20,2,5,0,0.98667,1,0.39787
25,21,4,4,0,0.98667,1,0.48237
25,22,4,6,0,0.98667,1,0.45548
25,23,5,3,0,0.98667,0,0.74155
25,24,3,2,0,0.98667,1,0.46668
25,25,3,2,0,0.98667,0,0.47957
25,26,6,5,0,0.98667,1,0.56328
25,27,6,4,0,0.98667,1,0.42405
25,28,4,2,0,0.98667,0,0.47584
25,29,5,5,0,0.98667,1,0.40158
25,30,3,2,0,0.98667,1,0.48817
25,31,6,5,0,0.98667,1,0.46796
25,32,5,3,0,0.98667,0,0.71432
25,33,3,5,0,0.98667,1,0.38305
25,34,2,6,0,0.98667,1,0.3705
25,35,4,4,0,0.98667,1,0.77418
25,36,4,5,0,0.98667,1,0.36823
25,37,2,3,0,0.98667,1,0.34179
25,38,3,4,0,0.98667,1,0.42516
25,39,5,5,0,0.98667,1,0.50952
25,40,2,5,0,0.98667,1,0.35379
25,41,2,6,0,0.98667,1,0.34989
25,42,5,2,0,0.98667,0,0.52926
25,43,5,4,0,0.98667,1,0.54802
25,44,2,4,0,0.98667,1,0.31346
25,45,6,6,0,0.98667,1,0.42923
25,46,2,2,0,0.98667,1,0.28016
25,47,6,3,0,0.98667,0,0.52388
25,48,5,6,0,0.98667,1,0.46326
25,49,5,2,0,0.98667,0,0.43975
25,50,4,6,0,0.98667,1,0.45958
25,51,5,3,1,0.98667,0,0.4294
25,52,6,2,0,0.98667,0,0.52191
25,53,2,2,0,0.98667,0,0.41437
25,54,4,4,0,0.98667,1,0.76805
25,55,6,2,0,0.98667,0,0.73932
25,56,5,6,0,0.98667,1,0.43083
25,57,4,5,0,0.98667,1,0.35474
25,58,3,3,0,0.98667,1,0.9509
25,59,3,5,0,0.98667,1,0.41099
25,60,3,6,0,0.98667,1,0.47199
25,61,2,6,0,0.98667,1,0.41071
25,62,6,4,0,0.98667,1,0.31732
25,63,3,3,0,0.98667,0,0.50423
25,64,4,3,0,0.98667,0,0.61904
25,65,3,6,0,0.98667,1,0.48699
25,66,3,6,0,0.98667,1,0.37877
25,67,2,3,0,0.98667,1,0.50215
25,68,6,3,0,0.98667,0,0.85758
25,69,2,2,0,0.98667,0,0.93297
25,70,6,3,0,0.98667,0,0.80647
25,71,5,5,0,0.98667,1,0.43467
25,72,6,6,0,0.98667,1,1.1085
25,73,5,2,0,0.98667,0,0.57537
25,74,2,4,0,0.98667,1,0.36254
25,75,2,3,0,0.98667,1,0.66017
26,1,5,4,0,0.62667,1,1.2172
26,2,2,4,1,0.62667,1,0.44762
26,3,6,5,0,0.62667,1,0.74817
26,4,4,5,0,0.62667,1,0.49672
26,5,4,3,0,0.62667,1,0.62276
26,6,6,6,0,0.62667,1,0.54967
26,7,3,5,1,0.62667,1,0.70782
26,8,4,6,0,0.62667,1,0.38573
26,9,5,4,0,0.62667,1,0.67042
26,10,3,4,0,0.62667,1,0.64402
26,11,5,6,0,0.62667,1,0.84933
26,12,3,4,0,0.62667,1,0.75892
26,13,2,5,0,0.62667,1,0.53144
26,14,4,2,0,0.62667,0,0.59271
26,15,4,2,0,0.62667,0,0.50932
26,16,6,4,0,0.62667,0,0.41846
26,17,4,3,0,0.62667,1,0.56019
26,18,6,2,0,0.62667,0,0.51012
26,19,3,3,0,0.62667,1,0.40345
26,20,2,5,0,0.62667,1,0.57041
26,21,4,4,0,0.62667,1,0.56209
26,22,4,6,0,0.62667,1,0.51215
26,23,5,3,0,0.62667,0,0.70117
26,24,3,2,0,0.62667,1,0.81889
26,25,3,2,0,0.62667,0,0.52211
26,26,6,5,0,0.62667,1,0.51191
26,27,6,4,0,0.62667,1,0.51064
26,28,4,2,0,0.62667,0,0.50636
26,29,5,5,0,0.62667,1,0.48089
26,30,3,2,0,0.62667,0,0.63789
26,31,6,5,1,0.62667,1,0.54552
26,32,5,3,1,0.62667,0,0.40795
26,33,3,5,0,0.62667,1,0.62911
26,34,2,6,0,0.62667,1,0.46521
26,35,4,4,0,0.62667,1,0.52504
26,36,4,5,1,0.62667,1,0.76983
26,37,2,3,1,0.62667,1,0.58393
26,38,3,4,1,0.62667,1,0.54903
26,39,5,5,1,0.62667,1,0.38539
26,40,2,5,1,0.62667,1,0.60054
26,41,2,6,1,0.62667,1,0.49512
26,42,5,2,1,0.62667,0,0.65298
26,43,5,4,1,0.62667,1,1.3779
26,44,2,4,1,0.62667,1,0.49011
26,45,6,6,1,0.62667,1,0.47991
26,46,2,2,1,0.62667,0,0.57306
26,47,6,3,1,0.62667,0,0.4827
26,48,5,6,0,0.62667,1,0.57363
26,49,5,2,1,0.62667,0,0.5295
26,50,4,6,0,0.62667,1,0.36558
26,51,5,3,1,0.62667,0,0.59275
26,52,6,2,1,0.62667,0,0.38264
26,53,2,2,1,0.62667,1,0.43427
26,54,4,4,0,0.62667,1,0.47688
26,55,6,2,0,0.62667,0,0.51263
26,56,5,6,0,0.62667,1,0.40349
26,57,4,5,1,0.62667,1,0.41811
26,58,3,3,1,0.62667,1,0.33407
26,59,3,5,1,0.62667,1,0.49106
26,60,3,6,0,0.62667,1,0.56779
26,61,2,6,0,0.62667,1,0.62712
26,62,6,4,1,0.62667,1,0.52037
26,63,3,3,0,0.62667,1,0.33055
26,64,4,3,0,0.62667,0,0.58978
26,65,3,6,1,0.62667,1,0.36262
26,66,3,6,0,0.62667,1,0.44596
26,67,2,3,1,0.62667,1,0.36279
26,68,6,3,0,0.62667,0,0.39766
26,69,2,2,1,0.62667,1,0.58518
26,70,6,3,1,0.62667,0,0.51675
26,71,5,5,0,0.62667,1,0.51386
26,72,6,6,0,0.62667,1,0.49158
26,73,5,2,0,0.62667,0,0.416
26,74,2,4,0,0.62667,1,0.40929
26,75,2,3,0,0.62667,1,0.49203
27,1,5,4,0,1,1,0.63066
27,2,2,4,0,1,1,0.80397
27,3,6,5,0,1,1,0.89774
27,4,4,5,0,1,1,0.5991
27,5,4,3,0,1,1,0.62112
27,6,6,6,0,1,1,0.74615
27,7,3,5,0,1,1,0.53678
27,8,4,6,0,1,1,0.62237
27,9,5,4,0,1,1,0.51527
27,10,3,4,0,1,1,0.68991
27,11,5,6,0,1,1,0.67902
27,12,3,4,0,1,1,0.69904
27,13,2,5,0,1,1,0.49718
27,14,4,2,0,1,0,0.67921
27,15,4,2,0,1,0,0.65967
27,16,6,4,0,1,0,2.2418
27,17,4,3,0,1,1,0.61586
27,18,6,2,0,1,0,0.9727
27,19,3,3,0,1,1,0.49826
27,20,2,5,0,1,1,1.1361
27,21,4,4,0,1,1,1.0535
27,22,4,6,0,1,1,0.55524
27,23,5,3,0,1,1,1.6027
27,24,3,2,0,1,1,1.0726
27,25,3,2,0,1,1,0.55864
27,26,6,5,0,1,1,0.52591
27,27,6,4,0,1,1,0.68458
27,28,4,2,0,1,1,0.61645
27,29,5,5,0,1,1,0.63093
27,30,3,2,0,1,1,0.75519
27,31,6,5,0,1,1,0.9354
27,32,5,3,0,1,1,1.0139
27,33,3,5,0,1,1,0.95459
27,34,2,6,0,1,1,0.7286
27,35,4,4,0,1,1,0.67005
27,36,4,5,0,1,1,1.0254
27,37,2,3,0,1,1,0.60645
27,38,3,4,0,1,1,0.63412
27,39,5,5,0,1,1,1.0304
27,40,2,5,0,1,1,0.69936
27,41,2,6,0,1,1,0.59217
27,42,5,2,0,1,0,0.53267
27,43,5,4,0,1,1,0.60015
27,44,2,4,0,1,1,0.53083
27,45,6,6,0,1,0,0.63948
27,46,2,2,0,1,1,0.61887
27,47,6,3,0,1,0,0.73567
27,48,5,6,0,1,1,0.67569
27,49,5,2,0,1,0,0.63148
27,50,4,6,0,1,1,0.73069
27,51,5,3,0,1,1,0.68099
27,52,6,2,0,1,0,0.61279
27,53,2,2,0,1,1,0.63022
27,54,4,4,0,1,1,0.51252
27,55,6,2,0,1,0,1.0764
27,56,5,6,0,1,1,0.86437
27,57,4,5,0,1,1,0.67592
27,58,3,3,0,1,1,0.65538
27,59,3,5,0,1,1,0.49251
27,60,3,6,0,1,1,0.52823
27,61,2,6,0,1,1,0.87729
27,62,6,4,0,1,0,1.2328
27,63,3,3,0,1,1,0.58584
27,64,4,3,0,1,1,1.3809
27,65,3,6,0,1,1,0.5611
27,66,3,6,0,1,1,0.51671
27,67,2,3,0,1,1,0.55057
27,68,6,3,0,1,1,0.50404
27,69,2,2,0,1,1,1.0608
27,70,6,3,0,1,0,0.63999
27,71,5,5,0,1,1,0.56387
27,72,6,6,0,1,1,2.2299
27,73,5,2,0,1,1,0.78421
27,74,2,4,0,1,1,0.44991
27,75,2,3,0,1,1,0.58795
28,1,5,4,0,1,1,0.46239
28,2,2,4,0,1,1,0.58713
28,3,6,5,0,1,1,0.45758
28,4,4,5,0,1,1,0.54254
28,5,4,3,0,1,1,0.49366
28,6,6,6,0,1,1,0.48077
28,7,3,5,0,1,1,0.49517
28,8,4,6,0,1,1,0.45941
28,9,5,4,0,1,1,0.4166
28,10,3,4,0,1,1,0.52452
28,11,5,6,0,1,1,0.50543
28,12,3,4,0,1,0,0.55803
28,13,2,5,0,1,1,0.53985
28,14,4,2,0,1,1,0.5945
28,15,4,2,0,1,1,0.66339
28,16,6,4,0,1,1,0.89372
28,17,4,3,0,1,1,0.57921
28,18,6,2,0,1,0,0.51005
28,19,3,3,0,1,1,0.72159
28,20,2,5,0,1,1,0.38249
28,21,4,4,0,1,1,0.43554
28,22,4,6,0,1,1,0.45099
28,23,5,3,0,1,1,0.68785
28,24,3,2,0,1,1,0.49399
28,25,3,2,0,1,1,0.47664
28,26,6,5,0,1,1,0.37509
28,27,6,4,0,1,0,0.51576
28,28,4,2,0,1,1,0.44687
28,29,5,5,0,1,1,0.52377
28,30,3,2,0,1,1,0.44094
28,31,6,5,0,1,0,0.38109
28,32,5,3,0,1,1,0.84792
28,33,3,5,0,1,1,0.48449
28,34,2,6,0,1,1,0.40893
28,35,4,4,0,1,1,0.68428
28,36,4,5,0,1,1,0.45442
28,37,2,3,0,1,1,0.60364
28,38,3,4,0,1,1,0.47827
28,39,5,5,0,1,1,0.53336
28,40,2,5,0,1,1,0.50527
28,41,2,6,0,1,1,0.60454
28,42,5,2,0,1,0,0.5114
28,43,5,4,0,1,1,0.65879
28,44,2,4,0,1,1,0.585
28,45,6,6,0,1,1,0.39822
28,46,2,2,0,1,1,0.62386
28,47,6,3,0,1,0,0.73961
28,48,5,6,0,1,1,0.67168
28,49,5,2,0,1,0,1.4198
28,50,4,6,0,1,1,0.49506
28,51,5,3,0,1,1,0.59145
28,52,6,2,0,1,0,0.83495
28,53,2,2,0,1,1,0.71691
28,54,4,4,0,1,1,0.64768
28,55,6,2,0,1,0,0.4668
28,56,5,6,0,1,1,0.70074
28,57,4,5,0,1,1,0.54485
28,58,3,3,0,1,1,0.56311
28,59,3,5,0,1,1,0.57442
28,60,3,6,0,1,1,0.70731
28,61,2,6,0,1,1,0.6952
28,62,6,4,0,1,0,1.1614
28,63,3,3,0,1,1,0.88364
28,64,4,3,0,1,1,0.82854
28,65,3,6,0,1,1,0.50317
28,66,3,6,0,1,1,0.37992
28,67,2,3,0,1,1,0.42405
28,68,6,3,0,1,0,0.57158
28,69,2,2,0,1,1,0.95025
28,70,6,3,0,1,0,0.64669
28,71,5,5,0,1,1,1.0106
28,72,6,6,0,1,1,0.63667
28,73,5,2,0,1,1,0.49469
28,74,2,4,0,1,1,0.59349
28,75,2,3,0,1,1,0.59537
29,1,5,4,0,1,0,1.1143
29,2,2,4,0,1,1,0.6878
29,3,6,5,0,1,0,1.1651
29,4,4,5,0,1,1,0.74688
29,5,4,3,0,1,1,1.0245
29,6,6,6,0,1,1,1.0225
29,7,3,5,0,1,1,1.2858
29,8,4,6,0,1,0,1.3088
29,9,5,4,0,1,0,0.85796
29,10,3,4,0,1,1,0.91142
29,11,5,6,0,1,0,1.0229
29,12,3,4,0,1,1,0.76478
29,13,2,5,0,1,1,1.1077
29,14,4,2,0,1,0,1.0513
29,15,4,2,0,1,0,1.3122
29,16,6,4,0,1,0,1.9901
29,17,4,3,0,1,1,0.82124
29,18,6,2,0,1,0,1.0665
29,19,3,3,0,1,1,1.2068
29,20,2,5,0,1,1,0.87647
29,21,4,4,0,1,0,0.77849
29,22,4,6,0,1,1,0.87311
29,23,5,3,0,1,0,2.2976
29,24,3,2,0,1,1,1.2082
29,25,3,2,0,1,0,1.1103
29,26,6,5,0,1,1,1.3122
29,27,6,4,0,1,0,0.85531
29,28,4,2,0,1,1,0.90977
29,29,5,5,0,1,1,1.1324
29,30,3,2,0,1,1,0.85494
29,31,6,5,0,1,0,1.7649
29,32,5,3,0,1,1,1.1398
29,33,3,5,0,1,1,1.3292
29,34,2,6,0,1,1,0.89512
29,35,4,4,0,1,1,1.1969
29,36,4,5,0,1,1,0.83494
29,37,2,3,0,1,1,0.95234
29,38,3,4,0,1,0,1.3879
29,39,5,5,0,1,1,1.0657
29,40,2,5,0,1,1,1.1586
29,41,2,6,0,1,1,1.2449
29,42,5,2,0,1,0,1.6722
29,43,5,4,0,1,1,0.90763
29,44,2,4,0,1,1,1.2167
29,45,6,6,0,1,0,1.2869
29,46,2,2,0,1,1,0.79631
29,47,6,3,0,1,0,1.4976
29,48,5,6,0,1,1,1.2118
29,49,5,2,0,1,0,2.0246
29,50,4,6,0,1,1,1.1479
29,51,5,3,0,1,1,0.91367
29,52,6,2,0,1,0,2.1739
29,53,2,2,0,1,1,0.84256
29,54,4,4,0,1,1,0.92632
29,55,6,2,0,1,0,1.5614
29,56,5,6,0,1,1,1.1024
29,57,4,5,0,1,1,0.69175
29,58,3,3,0,1,1,1.3025
29,59,3,5,0,1,1,1.6515
29,60,3,6,0,1,1,0.8717
29,61,2,6,0,1,1,1.1493
29,62,6,4,0,1,0,1.2802
29,63,3,3,0,1,1,0.46772
29,64,4,3,0,1,1,0.99678
29,65,3,6,0,1,1,0.86575
29,66,3,6,0,1,1,1.1407
29,67,2,3,0,1,1,1.0647
29,68,6,3,0,1,0,1.051
29,69,2,2,0,1,1,1.63
29,70,6,3,0,1,0,1.5766
29,71,5,5,0,1,1,1.0042
29,72,6,6,0,1,0,1.2637
29,73,5,2,0,1,0,1.3146
29,74,2,4,0,1,1,0.91615
29,75,2,3,0,1,1,1.0076
30,1,5,4,1,0.46667,1,0.67649
30,2,2,4,1,0.46667,1,0.61917
30,3,6,5,1,0.46667,1,0.61727
30,4,4,5,1,0.46667,1,0.5286
30,5,4,3,1,0.46667,1,0.56052
30,6,6,6,1,0.46667,1,0.51131
30,7,3,5,1,0.46667,1,0.65452
30,8,4,6,1,0.46667,1,0.53394
30,9,5,4,1,0.46667,1,0.48326
30,10,3,4,1,0.46667,1,0.52079
30,11,5,6,1,0.46667,1,0.58567
30,12,3,4,1,0.46667,1,0.439
30,13,2,5,1,0.46667,1,0.53267
30,14,4,2,1,0.46667,0,0.69161
30,15,4,2,1,0.46667,1,0.57134
30,16,6,4,1,0.46667,1,0.52784
30,17,4,3,1,0.46667,1,0.55077
30,18,6,2,1,0.46667,0,0.52333
30,19,3,3,1,0.46667,1,0.57784
30,20,2,5,1,0.46667,1,0.77071
30,21,4,4,0,0.46667,1,0.68117
30,22,4,6,1,0.46667,1,0.57465
30,23,5,3,1,0.46667,1,0.58134
30,24,3,2,1,0.46667,0,0.45168
30,25,3,2,1,0.46667,1,0.54765
30,26,6,5,0,0.46667,1,0.54747
30,27,6,4,1,0.46667,1,0.75523
30,28,4,2,1,0.46667,1,0.86566
30,29,5,5,1,0.46667,1,0.56047
30,30,3,2,1,0.46667,1,0.51825
30,31,6,5,0,0.46667,1,0.77193
30,32,5,3,0,0.46667,1,0.54538
30,33,3,5,0,0.46667,1,1.0145
30,34,2,6,0,0.46667,1,0.73971
30,35,4,4,0,0.46667,1,0.56589
30,36,4,5,0,0.46667,1,0.64261
30,37,2,3,0,0.46667,1,0.58553
30,38,3,4,1,0.46667,1,0.54295
30,39,5,5,1,0.46667,1,0.52608
30,40,2,5,1,0.46667,1,0.65357
30,41,2,6,0,0.46667,1,0.65134
30,42,5,2,0,0.46667,0,0.64029
30,43,5,4,0,0.46667,1,0.60511
30,44,2,4,0,0.46667,1,0.52317
30,45,6,6,0,0.46667,1,0.47456
30,46,2,2,0,0.46667,1,0.57461
30,47,6,3,0,0.46667,0,1.269
30,48,5,6,0,0.46667,1,0.93772
30,49,5,2,0,0.46667,0,0.72517
30,50,4,6,0,0.46667,1,0.62592
30,51,5,3,0,0.46667,1,0.50159
30,52,6,2,0,0.46667,0,0.62545
30,53,2,2,0,0.46667,1,0.51728
30,54,4,4,0,0.46667,1,0.51302
30,55,6,2,1,0.46667,0,0.64466
30,56,5,6,0,0.46667,1,0.53511
30,57,4,5,0,0.46667,1,0.74068
30,58,3,3,0,0.46667,0,0.34539
30,59,3,5,1,0.46667,1,0.63854
30,60,3,6,0,0.46667,1,0.76362
30,61,2,6,0,0.46667,1,0.59307
30,62,6,4,1,0.46667,0,0.91827
30,63,3,3,0,0.46667,1,0.56313
30,64,4,3,0,0.46667,1,0.52584
30,65,3,6,1,0.46667,1,0.59592
30,66,3,6,0,0.46667,1,0.45681
30,67,2,3,1,0.46667,1,0.39913
30,68,6,3,0,0.46667,0,0.53803
30,69,2,2,0,0.46667,1,0.4838
30,70,6,3,1,0.46667,0,0.58197
30,71,5,5,1,0.46667,1,0.6188
30,72,6,6,1,0.46667,1,0.48826
30,73,5,2,0,0.46667,0,0.40464
30,74,2,4,1,0.46667,1,0.46395
30,75,2,3,0,0.46667,1,0.6108
31,1,5,4,0,0.49333,0,1.12
31,2,2,4,1,0.49333,1,0.79102
31,3,6,5,1,0.49333,1,0.73252
31,4,4,5,0,0.49333,1,0.76987
31,5,4,3,1,0.49333,1,0.77137
31,6,6,6,1,0.49333,1,0.93797
31,7,3,5,0,0.49333,1,0.62616
31,8,4,6,0,0.49333,1,0.7047
31,9,5,4,0,0.49333,1,0.80742
31,10,3,4,0,0.49333,1,0.78342
31,11,5,6,0,0.49333,1,0.55664
31,12,3,4,1,0.49333,1,0.77247
31,13,2,5,0,0.49333,1,0.53269
31,14,4,2,0,0.49333,0,0.99556
31,15,4,2,1,0.49333,1,0.58531
31,16,6,4,0,0.49333,1,0.63154
31,17,4,3,1,0.49333,1,0.58271
31,18,6,2,0,0.49333,0,0.59544
31,19,3,3,1,0.49333,0,1.0416
31,20,2,5,1,0.49333,1,0.6332
31,21,4,4,0,0.49333,1,0.77602
31,22,4,6,0,0.49333,1,0.5826
31,23,5,3,1,0.49333,1,0.63551
31,24,3,2,1,0.49333,1,0.50749
31,25,3,2,1,0.49333,1,1.0355
31,26,6,5,0,0.49333,1,0.53012
31,27,6,4,1,0.49333,1,0.61
31,28,4,2,1,0.49333,1,0.47225
31,29,5,5,0,0.49333,1,0.64572
31,30,3,2,0,0.49333,1,0.60489
31,31,6,5,0,0.49333,1,0.51938
31,32,5,3,1,0.49333,1,0.55741
31,33,3,5,1,0.49333,1,0.55638
31,34,2,6,1,0.49333,1,0.59533
31,35,4,4,1,0.49333,1,0.6013
31,36,4,5,1,0.49333,1,0.48653
31,37,2,3,0,0.49333,1,0.49366
31,38,3,4,0,0.49333,1,0.88288
31,39,5,5,1,0.49333,1,0.77613
31,40,2,5,0,0.49333,1,0.96619
31,41,2,6,0,0.49333,1,0.59505
31,42,5,2,0,0.49333,0,0.81557
31,43,5,4,1,0.49333,1,1.1717
31,44,2,4,0,0.49333,1,0.60787
31,45,6,6,1,0.49333,1,0.89389
31,46,2,2,1,0.49333,1,0.69095
31,47,6,3,0,0.49333,1,0.74495
31,48,5,6,1,0.49333,1,0.86885
31,49,5,2,0,0.49333,0,2.3139
31,50,4,6,1,0.49333,1,0.5665
31,51,5,3,0,0.49333,1,0.94293
31,52,6,2,1,0.49333,0,0.97952
31,53,2,2,1,0.49333,1,0.60072
31,54,4,4,1,0.49333,1,0.5096
31,55,6,2,1,0.49333,0,2.0253
31,56,5,6,0,0.49333,1,0.86783
31,57,4,5,1,0.49333,1,0.72996
31,58,3,3,1,0.49333,1,0.56493
31,59,3,5,0,0.49333,1,0.69887
31,60,3,6,0,0.49333,1,0.69574
31,61,2,6,0,0.49333,1,0.55662
31,62,6,4,0,0.49333,1,0.71923
31,63,3,3,1,0.49333,1,0.75646
31,64,4,3,0,0.49333,1,0.63074
31,65,3,6,0,0.49333,1,0.81094
31,66,3,6,1,0.49333,1,0.52076
31,67,2,3,0,0.49333,1,0.49332
31,68,6,3,0,0.49333,1,0.66413
31,69,2,2,1,0.49333,1,0.78694
31,70,6,3,0,0.49333,1,0.54475
31,71,5,5,1,0.49333,1,1.4126
31,72,6,6,1,0.49333,1,0.70464
31,73,5,2,1,0.49333,1,0.85273
31,74,2,4,1,0.49333,1,0.75885
31,75,2,3,0,0.49333,1,0.59417
32,1,5,4,1,0.77333,1,0.51854
32,2,2,4,0,0.77333,1,0.49173
32,3,6,5,0,0.77333,1,0.90435
32,4,4,5,0,0.77333,1,0.43695
32,5,4,3,1,0.77333,1,0.54914
32,6,6,6,1,0.77333,1,0.46151
32,7,3,5,0,0.77333,1,0.59393
32,8,4,6,1,0.77333,1,0.60957
32,9,5,4,0,0.77333,1,0.52676
32,10,3,4,1,0.77333,1,0.4779
32,11,5,6,0,0.77333,1,0.43488
32,12,3,4,1,0.77333,1,0.46355
32,13,2,5,0,0.77333,1,0.40522
32,14,4,2,1,0.77333,0,0.60421
32,15,4,2,1,0.77333,1,0.37644
32,16,6,4,0,0.77333,1,0.48369
32,17,4,3,0,0.77333,1,0.49066
32,18,6,2,0,0.77333,0,0.66268
32,19,3,3,1,0.77333,1,0.50804
32,20,2,5,0,0.77333,1,0.39522
32,21,4,4,0,0.77333,1,0.47246
32,22,4,6,0,0.77333,1,0.35727
32,23,5,3,0,0.77333,1,0.56458
32,24,3,2,1,0.77333,1,0.60905
32,25,3,2,1,0.77333,1,0.77645
32,26,6,5,1,0.77333,1,0.40805
32,27,6,4,1,0.77333,0,0.6771
32,28,4,2,1,0.77333,1,0.70659
32,29,5,5,0,0.77333,1,0.62498
32,30,3,2,1,0.77333,1,0.92836
32,31,6,5,0,0.77333,1,0.42787
32,32,5,3,0,0.77333,1,0.4568
32,33,3,5,1,0.77333,1,0.64657
32,34,2,6,0,0.77333,1,0.41962
32,35,4,4,0,0.77333,1,0.53535
32,36,4,5,0,0.77333,1,0.41162
32,37,2,3,0,0.77333,1,0.36816
32,38,3,4,0,0.77333,1,0.45032
32,39,5,5,0,0.77333,1,0.39904
32,40,2,5,0,0.77333,1,0.38596
32,41,2,6,0,0.77333,1,0.46364
32,42,5,2,0,0.77333,0,0.35389
32,43,5,4,0,0.77333,1,0.51007
32,44,2,4,0,0.77333,1,0.307
32,45,6,6,0,0.77333,1,0.40841
32,46,2,2,0,0.77333,1,0.46707
32,47,6,3,0,0.77333,1,0.47126
32,48,5,6,0,0.77333,1,0.48824
32,49,5,2,0,0.77333,0,0.49116
32,50,4,6,0,0.77333,1,0.5753
32,51,5,3,0,0.77333,0,0.46836
32,52,6,2,0,0.77333,0,0.60814
32,53,2,2,0,0.77333,1,0.49081
32,54,4,4,0,0.77333,1,0.43805
32,55,6,2,0,0.77333,0,0.40775
32,56,5,6,0,0.77333,1,0.39509
32,57,4,5,0,0.77333,1,0.58388
32,58,3,3,0,0.77333,1,0.45049
32,59,3,5,0,0.77333,1,0.5106
32,60,3,6,1,0.77333,1,0.42858
32,61,2,6,0,0.77333,0,0.76731
32,62,6,4,0,0.77333,1,0.50606
32,63,3,3,0,0.77333,1,0.46839
32,64,4,3,0,0.77333,1,0.59198
32,65,3,6,0,0.77333,1,0.42669
32,66,3,6,0,0.77333,1,0.45491
32,67,2,3,0,0.77333,1,0.37799
32,68,6,3,0,0.77333,0,0.37082
32,69,2,2,0,0.77333,1,0.8217
32,70,6,3,0,0.77333,0,0.60894
32,71,5,5,0,0.77333,1,0.40242
32,72,6,6,0,0.77333,1,0.35891
32,73,5,2,0,0.77333,0,0.46532
32,74,2,4,0,0.77333,1,0.49752
32,75,2,3,0,0.77333,1,0.45093
33,1,5,4,0,0.50667,1,2.2377
33,2,2,4,1,0.50667,1,0.78749
33,3,6,5,0,0.50667,1,0.86447
33,4,4,5,1,0.50667,1,0.72646
33,5,4,3,1,0.50667,1,0.74137
33,6,6,6,0,0.50667,1,0.67432
33,7,3,5,0,0.50667,1,0.90467
33,8,4,6,1,0.50667,1,0.68089
33,9,5,4,1,0.50667,1,0.6949
33,10,3,4,0,0.50667,0,0.69818
33,11,5,6,1,0.50667,1,1.3824
33,12,3,4,0,0.50667,1,1.2266
33,13,2,5,1,0.50667,1,0.8251
33,14,4,2,1,0.50667,1,0.73486
33,15,4,2,1,0.50667,1,0.7719
33,16,6,4,0,0.50667,1,0.75185
33,17,4,3,1,0.50667,1,0.64768
33,18,6,2,0,0.50667,1,0.72274
33,19,3,3,0,0.50667,2,NaN
33,20,2,5,1,0.50667,1,0.89439
33,21,4,4,0,0.50667,1,0.60393
33,22,4,6,1,0.50667,1,0.74744
33,23,5,3,1,0.50667,1,0.60082
33,24,3,2,0,0.50667,1,0.70187
33,25,3,2,1,0.50667,1,0.6836
33,26,6,5,1,0.50667,1,0.69525
33,27,6,4,0,0.50667,1,0.83788
33,28,4,2,0,0.50667,1,0.73018
33,29,5,5,1,0.50667,1,1.9852
33,30,3,2,0,0.50667,1,0.62804
33,31,6,5,0,0.50667,1,0.54409
33,32,5,3,1,0.50667,1,0.66175
33,33,3,5,1,0.50667,1,0.68307
33,34,2,6,0,0.50667,1,0.63139
33,35,4,4,0,0.50667,1,0.67462
33,36,4,5,0,0.50667,1,0.62318
33,37,2,3,0,0.50667,1,0.69088
33,38,3,4,1,0.50667,1,0.67063
33,39,5,5,1,0.50667,1,0.54824
33,40,2,5,1,0.50667,1,0.81021
33,41,2,6,0,0.50667,1,0.58424
33,42,5,2,0,0.50667,1,0.63477
33,43,5,4,0,0.50667,1,0.62137
33,44,2,4,1,0.50667,1,0.62768
33,45,6,6,0,0.50667,1,0.59277
33,46,2,2,0,0.50667,1,0.61916
33,47,6,3,0,0.50667,1,0.60874
33,48,5,6,1,0.50667,1,0.66816
33,49,5,2,1,0.50667,1,0.63989
33,50,4,6,0,0.50667,1,0.59686
33,51,5,3,0,0.50667,1,0.56027
33,52,6,2,1,0.50667,1,0.69376
33,53,2,2,0,0.50667,1,0.64876
33,54,4,4,0,0.50667,1,0.6193
33,55,6,2,1,0.50667,1,0.89439
33,56,5,6,1,0.50667,1,0.66305
33,57,4,5,1,0.50667,1,0.58758
33,58,3,3,1,0.50667,1,0.53556
33,59,3,5,0,0.50667,1,0.57171
33,60,3,6,0,0.50667,1,0.68749
33,61,2,6,0,0.50667,1,0.70691
33,62,6,4,1,0.50667,1,0.56679
33,63,3,3,0,0.50667,1,0.61014
33,64,4,3,0,0.50667,1,0.67598
33,65,3,6,1,0.50667,1,0.69649
33,66,3,6,0,0.50667,1,0.69119
33,67,2,3,1,0.50667,1,0.67964
33,68,6,3,1,0.50667,1,0.72202
33,69,2,2,1,0.50667,1,0.57358
33,70,6,3,1,0.50667,1,0.50245
33,71,5,5,1,0.50667,1,0.63584
33,72,6,6,1,0.50667,1,0.66211
33,73,5,2,0,0.50667,1,0.62479
33,74,2,4,0,0.50667,1,0.64977
33,75,2,3,0,0.50667,1,0.64296
34,1,5,4,0,1,1,0.93885
34,2,2,4,0,1,1,0.79255
34,3,6,5,0,1,0,0.96674
34,4,4,5,0,1,1,0.81121
34,5,4,3,0,1,1,0.65854
34,6,6,6,0,1,1,1.5929
34,7,3,5,0,1,1,0.81473
34,8,4,6,0,1,1,0.66815
34,9,5,4,0,1,1,0.77056
34,10,3,4,0,1,1,0.72119
34,11,5,6,0,1,1,0.66971
34,12,3,4,0,1,1,0.6584
34,13,2,5,0,1,1,0.62571
34,14,4,2,0,1,0,0.8718
34,15,4,2,0,1,1,1.2524
34,16,6,4,0,1,0,1.8253
34,17,4,3,0,1,1,1.8092
34,18,6,2,0,1,0,0.82915
34,19,3,3,0,1,1,0.63389
34,20,2,5,0,1,1,0.49646
34,21,4,4,0,1,1,0.94939
34,22,4,6,0,1,1,0.79511
34,23,5,3,0,1,0,0.76149
34,24,3,2,0,1,1,1.0462
34,25,3,2,0,1,0,0.69174
34,26,6,5,0,1,1,0.66142
34,27,6,4,0,1,1,1.6992
34,28,4,2,0,1,0,0.91132
34,29,5,5,0,1,1,0.89288
34,30,3,2,0,1,1,0.70698
34,31,6,5,0,1,1,0.72017
34,32,5,3,0,1,1,1.2617
34,33,3,5,0,1,1,0.76341
34,34,2,6,0,1,1,1.111
34,35,4,4,0,1,1,1.0115
34,36,4,5,0,1,1,0.67226
34,37,2,3,0,1,1,0.78933
34,38,3,4,0,1,1,0.83368
34,39,5,5,0,1,1,0.91925
34,40,2,5,0,1,1,0.8674
34,41,2,6,0,1,1,0.8952
34,42,5,2,0,1,0,0.99574
34,43,5,4,0,1,1,1.0163
34,44,2,4,0,1,1,0.62966
34,45,6,6,0,1,1,1.0885
34,46,2,2,0,1,1,1.109
34,47,6,3,0,1,0,0.77818
34,48,5,6,0,1,1,0.66952
34,49,5,2,0,1,0,1.2417
34,50,4,6,0,1,1,0.8532
34,51,5,3,0,1,1,0.57484
34,52,6,2,0,1,0,0.77069
34,53,2,2,0,1,1,0.89624
34,54,4,4,0,1,1,1.1642
34,55,6,2,0,1,0,0.77515
34,56,5,6,0,1,1,0.89794
34,57,4,5,0,1,1,0.51803
34,58,3,3,0,1,1,0.87326
34,59,3,5,0,1,1,0.96487
34,60,3,6,0,1,1,0.77687
34,61,2,6,0,1,1,0.67696
34,62,6,4,0,1,0,1.6958
34,63,3,3,0,1,1,0.50782
34,64,4,3,0,1,1,0.83784
34,65,3,6,0,1,1,0.79509
34,66,3,6,0,1,1,0.73488
34,67,2,3,0,1,1,0.51519
34,68,6,3,0,1,0,0.61209
34,69,2,2,0,1,1,1.0084
34,70,6,3,0,1,0,1.1788
34,71,5,5,0,1,1,0.92616
34,72,6,6,0,1,1,2.0171
34,73,5,2,0,1,0,0.85016
34,74,2,4,0,1,1,0.89994
34,75,2,3,0,1,1,1.1104
35,1,5,4,1,0.61333,1,1.0208
35,2,2,4,0,0.61333,1,0.74662
35,3,6,5,1,0.61333,1,0.75834
35,4,4,5,0,0.61333,1,0.85269
35,5,4,3,1,0.61333,1,1.8269
35,6,6,6,1,0.61333,1,0.67351
35,7,3,5,1,0.61333,1,0.73809
35,8,4,6,1,0.61333,1,0.69545
35,9,5,4,0,0.61333,1,0.89268
35,10,3,4,1,0.61333,1,0.76377
35,11,5,6,0,0.61333,1,0.72018
35,12,3,4,1,0.61333,1,0.55089
35,13,2,5,1,0.61333,1,0.66156
35,14,4,2,1,0.61333,0,0.90047
35,15,4,2,0,0.61333,0,0.75148
35,16,6,4,1,0.61333,1,1.4773
35,17,4,3,0,0.61333,1,0.88259
35,18,6,2,1,0.61333,0,0.96028
35,19,3,3,1,0.61333,1,0.59926
35,20,2,5,0,0.61333,1,0.77302
35,21,4,4,0,0.61333,1,0.7226
35,22,4,6,0,0.61333,1,0.70358
35,23,5,3,1,0.61333,0,0.67886
35,24,3,2,1,0.61333,1,0.66846
35,25,3,2,0,0.61333,0,1.8665
35,26,6,5,0,0.61333,1,0.67242
35,27,6,4,0,0.61333,1,0.59031
35,28,4,2,0,0.61333,1,0.50548
35,29,5,5,0,0.61333,1,0.57487
35,30,3,2,0,0.61333,1,0.53236
35,31,6,5,0,0.61333,1,0.66333
35,32,5,3,0,0.61333,1,1.8756
35,33,3,5,1,0.61333,1,0.73777
35,34,2,6,1,0.61333,1,0.66506
35,35,4,4,0,0.61333,1,0.45207
35,36,4,5,1,0.61333,1,0.52854
35,37,2,3,0,0.61333,1,0.87786
35,38,3,4,0,0.61333,1,0.50522
35,39,5,5,1,0.61333,1,0.77546
35,40,2,5,0,0.61333,1,0.86799
35,41,2,6,0,0.61333,1,0.52049
35,42,5,2,0,0.61333,0,0.6109
35,43,5,4,0,0.61333,1,0.49556
35,44,2,4,0,0.61333,1,1.0109
35,45,6,6,0,0.61333,1,1.0159
35,46,2,2,1,0.61333,1,0.8672
35,47,6,3,0,0.61333,0,0.71225
35,48,5,6,1,0.61333,1,0.79663
35,49,5,2,0,0.61333,0,0.54206
35,50,4,6,1,0.61333,1,0.80191
35,51,5,3,0,0.61333,1,0.51361
35,52,6,2,0,0.61333,0,0.90213
35,53,2,2,0,0.61333,1,0.68839
35,54,4,4,1,0.61333,1,0.7023
35,55,6,2,1,0.61333,0,0.81903
35,56,5,6,0,0.61333,1,0.71133
35,57,4,5,0,0.61333,1,0.73904
35,58,3,3,1,0.61333,1,0.58383
35,59,3,5,0,0.61333,1,0.60068
35,60,3,6,0,0.61333,1,0.45228
35,61,2,6,0,0.61333,1,0.53554
35,62,6,4,0,0.61333,0,0.72359
35,63,3,3,0,0.61333,1,0.84515
35,64,4,3,0,0.61333,1,1.0312
35,65,3,6,1,0.61333,1,0.59651
35,66,3,6,0,0.61333,1,0.53628
35,67,2,3,0,0.61333,1,0.78004
35,68,6,3,1,0.61333,0,1.0379
35,69,2,2,0,0.61333,1,0.50694
35,70,6,3,1,0.61333,1,1.3414
35,71,5,5,0,0.61333,1,0.80884
35,72,6,6,1,0.61333,1,1.3074
35,73,5,2,0,0.61333,0,0.86173
35,74,2,4,0,0.61333,1,0.52702
35,75,2,3,0,0.61333,1,0.66566
36,1,5,4,0,1,1,0.59575
36,2,2,4,0,1,1,0.56142
36,3,6,5,0,1,1,0.61477
36,4,4,5,0,1,1,0.58699
36,5,4,3,0,1,1,0.51424
36,6,6,6,0,1,1,0.44772
36,7,3,5,0,1,1,0.59724
36,8,4,6,0,1,1,0.57165
36,9,5,4,0,1,1,0.63247
36,10,3,4,0,1,1,0.54376
36,11,5,6,0,1,1,0.58957
36,12,3,4,0,1,1,0.73888
36,13,2,5,0,1,1,0.52946
36,14,4,2,0,1,0,0.51962
36,15,4,2,0,1,0,1.1077
36,16,6,4,0,1,1,0.48778
36,17,4,3,0,1,1,0.61426
36,18,6,2,0,1,0,0.55556
36,19,3,3,0,1,1,0.61524
36,20,2,5,0,1,1,0.58106
36,21,4,4,0,1,1,0.59353
36,22,4,6,0,1,1,0.57529
36,23,5,3,0,1,1,0.51012
36,24,3,2,0,1,1,0.58741
36,25,3,2,0,1,1,0.62477
36,26,6,5,0,1,1,0.49541
36,27,6,4,0,1,1,0.74867
36,28,4,2,0,1,1,0.64979
36,29,5,5,0,1,1,0.51779
36,30,3,2,0,1,1,0.58739
36,31,6,5,0,1,1,0.50352
36,32,5,3,0,1,0,0.90941
36,33,3,5,0,1,1,0.63545
36,34,2,6,0,1,1,0.44086
36,35,4,4,0,1,1,0.55639
36,36,4,5,0,1,1,0.6882
36,37,2,3,0,1,1,0.95823
36,38,3,4,0,1,1,0.60184
36,39,5,5,0,1,1,0.42371
36,40,2,5,0,1,1,0.67655
36,41,2,6,0,1,1,0.50576
36,42,5,2,0,1,0,0.68486
36,43,5,4,0,1,1,0.75216
36,44,2,4,0,1,1,0.48529
36,45,6,6,0,1,1,0.69851
36,46,2,2,0,1,1,0.51787
36,47,6,3,0,1,0,0.44238
36,48,5,6,0,1,1,0.50178
36,49,5,2,0,1,0,0.8736
36,50,4,6,0,1,1,0.41362
36,51,5,3,0,1,1,0.36992
36,52,6,2,0,1,0,0.45513
36,53,2,2,0,1,1,0.65114
36,54,4,4,0,1,1,0.62976
36,55,6,2,0,1,0,0.64884
36,56,5,6,0,1,1,0.468
36,57,4,5,0,1,1,0.42509
36,58,3,3,0,1,1,0.42856
36,59,3,5,0,1,1,0.36816
36,60,3,6,0,1,1,0.6692
36,61,2,6,0,1,1,0.45654
36,62,6,4,0,1,1,0.56345
36,63,3,3,0,1,1,0.49398
36,64,4,3,0,1,1,0.51222
36,65,3,6,0,1,1,0.38905
36,66,3,6,0,1,1,0.59324
36,67,2,3,0,1,1,0.74926
36,68,6,3,0,1,1,0.64764
36,69,2,2,0,1,1,0.43455
36,70,6,3,0,1,1,0.57359
36,71,5,5,0,1,1,0.55225
36,72,6,6,0,1,1,0.53202
36,73,5,2,0,1,1,0.54865
36,74,2,4,0,1,1,0.51118
36,75,2,3,0,1,1,0.47481
37,1,5,4,1,0,1,1.0275
37,2,2,4,1,0,1,0.49628
37,3,6,5,1,0,1,1.4776
37,4,4,5,1,0,1,1.0918
37,5,4,3,1,0,1,1.1244
37,6,6,6,1,0,1,0.81788
37,7,3,5,1,0,1,1.098
37,8,4,6,1,0,1,0.59391
37,9,5,4,1,0,1,0.90271
37,10,3,4,1,0,1,0.59044
37,11,5,6,1,0,1,0.88285
37,12,3,4,1,0,1,0.8812
37,13,2,5,1,0,1,0.78315
37,14,4,2,1,0,1,0.83879
37,15,4,2,1,0,1,0.67536
37,16,6,4,1,0,1,0.50522
37,17,4,3,1,0,1,0.57693
37,18,6,2,1,0,1,0.76619
37,19,3,3,1,0,1,1.091
37,20,2,5,1,0,0,0.074329
37,21,4,4,1,0,1,0.76794
37,22,4,6,1,0,1,0.59881
37,23,5,3,1,0,1,0.50898
37,24,3,2,1,0,1,0.70714
37,25,3,2,1,0,1,0.89898
37,26,6,5,1,0,1,0.61357
37,27,6,4,1,0,1,0.51517
37,28,4,2,1,0,1,0.95325
37,29,5,5,1,0,1,0.72774
37,30,3,2,1,0,1,0.74138
37,31,6,5,1,0,1,0.71302
37,32,5,3,1,0,1,0.57549
37,33,3,5,1,0,1,0.72706
37,34,2,6,1,0,1,1.2926
37,35,4,4,1,0,1,0.68181
37,36,4,5,1,0,1,0.75794
37,37,2,3,1,0,1,0.9787
37,38,3,4,1,0,1,0.59125
37,39,5,5,1,0,1,0.54224
37,40,2,5,1,0,1,0.83533
37,41,2,6,1,0,1,0.70485
37,42,5,2,1,0,1,0.62947
37,43,5,4,1,0,1,0.73633
37,44,2,4,1,0,1,0.71783
37,45,6,6,1,0,1,0.59487
37,46,2,2,1,0,1,0.84963
37,47,6,3,1,0,1,0.71178
37,48,5,6,1,0,1,0.50853
37,49,5,2,1,0,1,0.64114
37,50,4,6,1,0,1,0.42904
37,51,5,3,1,0,1,0.49541
37,52,6,2,1,0,1,0.78069
37,53,2,2,1,0,1,0.70466
37,54,4,4,1,0,1,0.79685
37,55,6,2,1,0,1,0.73703
37,56,5,6,1,0,1,0.74799
37,57,4,5,1,0,1,0.60867
37,58,3,3,1,0,1,0.61322
37,59,3,5,1,0,1,0.59473
37,60,3,6,1,0,1,0.58329
37,61,2,6,1,0,1,0.5328
37,62,6,4,1,0,1,0.60064
37,63,3,3,1,0,1,0.71559
37,64,4,3,1,0,1,0.61403
37,65,3,6,1,0,1,0.65025
37,66,3,6,1,0,1,1.0219
37,67,2,3,1,0,1,1.5867
37,68,6,3,1,0,1,0.61471
37,69,2,2,1,0,1,0.77741
37,70,6,3,1,0,1,0.94114
37,71,5,5,1,0,1,0.77703
37,72,6,6,1,0,1,0.86868
37,73,5,2,1,0,1,0.84724
37,74,2,4,1,0,1,1.6096
37,75,2,3,1,0,1,0.72437
38,1,5,4,0,0.98667,0,1.389
38,2,2,4,0,0.98667,1,0.89121
38,3,6,5,0,0.98667,0,1.0074
38,4,4,5,0,0.98667,1,0.62929
38,5,4,3,0,0.98667,1,0.65199
38,6,6,6,0,0.98667,2,NaN
38,7,3,5,0,0.98667,1,0.76758
38,8,4,6,0,0.98667,1,0.51773
38,9,5,4,0,0.98667,0,0.63359
38,10,3,4,0,0.98667,1,0.6077
38,11,5,6,0,0.98667,1,0.61307
38,12,3,4,0,0.98667,1,0.59426
38,13,2,5,0,0.98667,1,0.59237
38,14,4,2,0,0.98667,1,0.9038
38,15,4,2,0,0.98667,1,0.68435
38,16,6,4,0,0.98667,0,0.63258
38,17,4,3,0,0.98667,1,0.59908
38,18,6,2,0,0.98667,0,1.1238
38,19,3,3,1,0.98667,1,0.79978
38,20,2,5,0,0.98667,1,0.5663
38,21,4,4,0,0.98667,1,0.43382
38,22,4,6,0,0.98667,1,0.56856
38,23,5,3,0,0.98667,1,0.55021
38,24,3,2,0,0.98667,1,0.61167
38,25,3,2,0,0.98667,1,0.61707
38,26,6,5,0,0.98667,1,1.0425
38,27,6,4,0,0.98667,1,0.63975
38,28,4,2,0,0.98667,1,0.61977
38,29,5,5,0,0.98667,1,0.48093
38,30,3,2,0,0.98667,1,0.43832
38,31,6,5,0,0.98667,1,1.2734
38,32,5,3,0,0.98667,1,0.40594
38,33,3,5,0,0.98667,1,0.6594
38,34,2,6,0,0.98667,1,0.42455
38,35,4,4,0,0.98667,1,0.51672
38,36,4,5,0,0.98667,1,0.83206
38,37,2,3,0,0.98667,1,0.76395
38,38,3,4,0,0.98667,1,0.58244
38,39,5,5,0,0.98667,1,0.45036
38,40,2,5,0,0.98667,1,0.76793
38,41,2,6,0,0.98667,1,0.61222
38,42,5,2,0,0.98667,1,1.0393
38,43,5,4,0,0.98667,1,0.58827
38,44,2,4,0,0.98667,1,0.48
38,45,6,6,0,0.98667,1,0.40356
38,46,2,2,0,0.98667,1,0.83196
38,47,6,3,0,0.98667,0,0.69983
38,48,5,6,0,0.98667,1,0.51088
38,49,5,2,0,0.98667,1,0.64223
38,50,4,6,0,0.98667,1,0.48503
38,51,5,3,0,0.98667,1,0.72848
38,52,6,2,0,0.98667,0,0.4694
38,53,2,2,0,0.98667,1,0.48106
38,54,4,4,0,0.98667,1,0.65106
38,55,6,2,0,0.98667,0,0.62301
38,56,5,6,0,0.98667,1,0.52127
38,57,4,5,0,0.98667,1,0.42074
38,58,3,3,0,0.98667,1,0.47889
38,59,3,5,0,0.98667,1,0.36294
38,60,3,6,0,0.98667,1,0.62268
38,61,2,6,0,0.98667,1,0.55495
38,62,6,4,0,0.98667,0,0.7738
38,63,3,3,0,0.98667,1,1.1441
38,64,4,3,0,0.98667,1,0.45122
38,65,3,6,0,0.98667,1,0.6232
38,66,3,6,0,0.98667,1,0.53006
38,67,2,3,0,0.98667,1,0.85446
38,68,6,3,0,0.98667,0,1.5283
38,69,2,2,0,0.98667,1,0.57985
38,70,6,3,0,0.98667,0,0.68393
38,71,5,5,0,0.98667,1,0.62359
38,72,6,6,0,0.98667,1,0.45794
38,73,5,2,0,0.98667,1,0.51564
38,74,2,4,0,0.98667,1,0.88422
38,75,2,3,0,0.98667,1,0.63797
39,1,5,4,0,0.6,1,0.70479
39,2,2,4,0,0.6,1,0.73367
39,3,6,5,0,0.6,1,0.65888
39,4,4,5,1,0.6,1,0.72161
39,5,4,3,0,0.6,1,0.55158
39,6,6,6,0,0.6,1,0.57285
39,7,3,5,1,0.6,1,0.56334
39,8,4,6,0,0.6,1,0.47435
39,9,5,4,0,0.6,1,0.65459
39,10,3,4,1,0.6,1,0.55128
39,11,5,6,0,0.6,1,0.78924
39,12,3,4,0,0.6,1,0.49139
39,13,2,5,0,0.6,1,0.51319
39,14,4,2,0,0.6,1,0.47066
39,15,4,2,0,0.6,1,0.59498
39,16,6,4,0,0.6,1,0.37673
39,17,4,3,0,0.6,0,0.6606
39,18,6,2,0,0.6,1,0.57829
39,19,3,3,0,0.6,1,0.71027
39,20,2,5,0,0.6,1,0.5397
39,21,4,4,0,0.6,1,0.62272
39,22,4,6,0,0.6,1,0.53312
39,23,5,3,0,0.6,1,0.52152
39,24,3,2,0,0.6,1,0.72799
39,25,3,2,0,0.6,1,0.43655
39,26,6,5,0,0.6,1,0.75509
39,27,6,4,0,0.6,1,1.0501
39,28,4,2,0,0.6,1,0.47688
39,29,5,5,0,0.6,1,0.54798
39,30,3,2,0,0.6,1,0.5686
39,31,6,5,0,0.6,1,0.57338
39,32,5,3,0,0.6,1,0.46624
39,33,3,5,0,0.6,1,0.48019
39,34,2,6,0,0.6,1,0.53129
39,35,4,4,0,0.6,1,0.66208
39,36,4,5,0,0.6,1,0.7872
39,37,2,3,0,0.6,1,0.84884
39,38,3,4,0,0.6,1,0.4897
39,39,5,5,0,0.6,1,0.40667
39,40,2,5,1,0.6,1,0.65364
39,41,2,6,1,0.6,1,0.6432
39,42,5,2,1,0.6,1,0.50357
39,43,5,4,1,0.6,1,0.58772
39,44,2,4,0,0.6,1,0.5436
39,45,6,6,0,0.6,1,0.73313
39,46,2,2,0,0.6,1,0.60645
39,47,6,3,0,0.6,1,0.58694
39,48,5,6,1,0.6,1,0.52604
39,49,5,2,1,0.6,1,0.63381
39,50,4,6,1,0.6,2,NaN
39,51,5,3,0,0.6,1,0.48143
39,52,6,2,0,0.6,1,0.57284
39,53,2,2,1,0.6,1,0.45508
39,54,4,4,1,0.6,1,0.54675
39,55,6,2,1,0.6,1,0.50194
39,56,5,6,1,0.6,1,0.47518
39,57,4,5,1,0.6,1,0.47871
39,58,3,3,1,0.6,1,1.0582
39,59,3,5,0,0.6,1,0.49354
39,60,3,6,1,0.6,1,1.123
39,61,2,6,1,0.6,1,0.52818
39,62,6,4,1,0.6,1,0.46707
39,63,3,3,1,0.6,1,0.48457
39,64,4,3,1,0.6,1,0.74324
39,65,3,6,0,0.6,1,0.49068
39,66,3,6,1,0.6,1,1.2562
39,67,2,3,1,0.6,1,0.98132
39,68,6,3,1,0.6,1,1.3907
39,69,2,2,1,0.6,1,0.51394
39,70,6,3,1,0.6,0,0.52314
39,71,5,5,0,0.6,1,1.0309
39,72,6,6,1,0.6,1,0.42265
39,73,5,2,1,0.6,1,0.87433
39,74,2,4,1,0.6,1,0.9165
39,75,2,3,1,0.6,1,0.5021
40,1,5,4,1,0.28,1,0.51634
40,2,2,4,0,0.28,1,0.41794
40,3,6,5,0,0.28,1,0.87189
40,4,4,5,1,0.28,1,0.55769
40,5,4,3,1,0.28,1,0.62182
40,6,6,6,1,0.28,1,0.41144
40,7,3,5,1,0.28,1,0.46719
40,8,4,6,1,0.28,1,0.51451
40,9,5,4,1,0.28,1,0.61519
40,10,3,4,1,0.28,1,0.56519
40,11,5,6,0,0.28,1,0.44309
40,12,3,4,1,0.28,1,0.69605
40,13,2,5,1,0.28,1,0.48704
40,14,4,2,1,0.28,0,0.97437
40,15,4,2,1,0.28,1,0.81229
40,16,6,4,1,0.28,1,0.55343
40,17,4,3,1,0.28,1,1.0891
40,18,6,2,1,0.28,1,0.5431
40,19,3,3,1,0.28,1,0.48579
40,20,2,5,1,0.28,1,0.51014
40,21,4,4,1,0.28,1,0.67554
40,22,4,6,1,0.28,1,0.4662
40,23,5,3,0,0.28,1,0.79894
40,24,3,2,1,0.28,1,0.65287
40,25,3,2,1,0.28,0,0.77084
40,26,6,5,1,0.28,1,0.76587
40,27,6,4,0,0.28,1,0.82649
40,28,4,2,0,0.28,0,0.50404
40,29,5,5,1,0.28,1,0.49411
40,30,3,2,1,0.28,1,0.4448
40,31,6,5,0,0.28,1,0.3772
40,32,5,3,1,0.28,1,0.5677
40,33,3,5,1,0.28,1,0.62006
40,34,2,6,1,0.28,1,0.43327
40,35,4,4,1,0.28,1,0.69326
40,36,4,5,1,0.28,1,0.53858
40,37,2,3,1,0.28,1,0.52066
40,38,3,4,0,0.28,1,0.72426
40,39,5,5,1,0.28,1,0.5296
40,40,2,5,1,0.28,1,0.55028
40,41,2,6,1,0.28,1,0.57929
40,42,5,2,1,0.28,0,0.71939
40,43,5,4,1,0.28,1,0.80241
40,44,2,4,0,0.28,1,0.56084
40,45,6,6,1,0.28,1,0.52616
40,46,2,2,1,0.28,1,0.5554
40,47,6,3,1,0.28,1,0.54467
40,48,5,6,1,0.28,1,0.493
40,49,5,2,0,0.28,0,0.53721
40,50,4,6,1,0.28,1,0.48541
40,51,5,3,1,0.28,1,0.65669
40,52,6,2,0,0.28,0,0.54952
40,53,2,2,0,0.28,0,0.76811
40,54,4,4,0,0.28,1,0.53311
40,55,6,2,1,0.28,0,0.55987
40,56,5,6,0,0.28,1,1.2434
40,57,4,5,0,0.28,1,0.59953
40,58,3,3,0,0.28,1,0.48198
40,59,3,5,1,0.28,1,0.61367
40,60,3,6,1,0.28,1,0.93023
40,61,2,6,1,0.28,1,0.60634
40,62,6,4,1,0.28,1,0.52204
40,63,3,3,1,0.28,1,0.70109
40,64,4,3,1,0.28,1,0.46457
40,65,3,6,0,0.28,1,0.62833
40,66,3,6,1,0.28,1,0.38453
40,67,2,3,1,0.28,1,0.39098
40,68,6,3,1,0.28,0,0.56368
40,69,2,2,0,0.28,1,0.80764
40,70,6,3,1,0.28,0,0.6116
40,71,5,5,0,0.28,1,0.88769
40,72,6,6,0,0.28,1,0.56192
40,73,5,2,0,0.28,0,0.73272
40,74,2,4,1,0.28,1,0.55918
40,75,2,3,1,0.28,1,0.73058